"rt","correct","stimulus","key_press","keys","symptom1","symptom2","key","category","phase","trial","include","block","trial_type","trial_index","time_elapsed","internal_node_id","ppt","session","abresp"
"null","false","rash,headache","null","90,76","B","A","90","common","training","1","true","1","categorize-html","4","182680","0.0-4.0-0.0","75634","20222221","none"
"2837.7000000476837","false","headache,rash","32","90,76","A","B","90","common","training","2","true","1","categorize-html","6","186546","0.0-4.0-2.0","75634","20222221","none"
"2903.5","false","rash,headache","32","90,76","B","A","90","common","training","3","true","1","categorize-html","8","190469","0.0-4.0-4.0","75634","20222221","none"
"2582.3000000715256","false","headache,rash","32","90,76","A","B","90","common","training","4","true","1","categorize-html","10","194077","0.0-4.0-6.0","75634","20222221","none"
"2234.2999999523163","false","rash,headache","32","90,76","B","A","90","common","training","5","true","1","categorize-html","12","197331","0.0-4.0-8.0","75634","20222221","none"
"2211.899999976158","false","headache,rash","32","90,76","A","B","90","common","training","6","true","1","categorize-html","14","200558","0.0-4.0-10.0","75634","20222221","none"
"4118.199999928474","false","headache,fever","32","90,76","A","C","76","rare","training","7","true","1","categorize-html","16","205693","0.0-4.0-12.0","75634","20222221","none"
"1721.1999999284744","false","fever,headache","32","90,76","C","A","76","rare","training","8","true","1","categorize-html","18","208431","0.0-4.0-14.0","75634","20222221","none"
"null","false","headache,rash","null","90,76","A","B","90","common","training","9","true","2","categorize-html","21","261720","0.0-4.0-17.0","75634","20222221","none"
"null","false","rash,headache","null","90,76","B","A","90","common","training","10","true","2","categorize-html","23","267739","0.0-4.0-19.0","75634","20222221","none"
"null","false","headache,rash","null","90,76","A","B","90","common","training","11","true","2","categorize-html","25","273762","0.0-4.0-21.0","75634","20222221","none"
"3526.6999999284744","false","headache,rash","32","90,76","A","B","90","common","training","12","true","2","categorize-html","27","278302","0.0-4.0-23.0","75634","20222221","none"
"1690.6000000238419","false","fever,headache","32","90,76","C","A","76","rare","training","13","true","2","categorize-html","29","281005","0.0-4.0-25.0","75634","20222221","none"
"1288.1000000238419","false","rash,headache","32","90,76","B","A","90","common","training","14","true","2","categorize-html","31","283317","0.0-4.0-27.0","75634","20222221","none"
"1480.5","false","headache,fever","32","90,76","A","C","76","rare","training","15","true","2","categorize-html","33","285818","0.0-4.0-29.0","75634","20222221","none"
"1227.1000000238419","false","rash,headache","32","90,76","B","A","90","common","training","16","true","2","categorize-html","35","288064","0.0-4.0-31.0","75634","20222221","none"
"3793.7000000476837","false","headache,rash","90","90,76","A","B","","","test","1","true","","categorize-html","39","375555","0.0-6.0-0.0","75634","20222221","common"
"1906.3999999761581","false","rash,headache","90","90,76","B","A","","","test","2","true","","categorize-html","41","378983","0.0-6.0-2.0","75634","20222221","common"
"3455.7000000476837","false","headache","90","90,76","A","","","","test","3","true","","categorize-html","43","383959","0.0-6.0-4.0","75634","20222221","common"
"1558.5999999046326","false","rash","90","90,76","B","","","","test","4","true","","categorize-html","45","387045","0.0-6.0-6.0","75634","20222221","common"
"3514","false","fever,rash","76","90,76","C","B","","","test","5","true","","categorize-html","47","392071","0.0-6.0-8.0","75634","20222221","rare"
"4426.700000047684","false","headache","90","90,76","A","","","","test","6","true","","categorize-html","49","398007","0.0-6.0-10.0","75634","20222221","common"
"1282.9000000953674","false","rash","90","90,76","B","","","","test","7","true","","categorize-html","51","400803","0.0-6.0-12.0","75634","20222221","common"
"965.5","false","fever","76","90,76","C","","","","test","8","true","","categorize-html","53","403282","0.0-6.0-14.0","75634","20222221","rare"
"3636.5","false","headache,fever","76","90,76","A","C","","","test","9","true","","categorize-html","55","408435","0.0-6.0-16.0","75634","20222221","rare"
"3286.1999999284744","false","rash,fever","76","90,76","B","C","","","test","10","true","","categorize-html","57","413253","0.0-6.0-18.0","75634","20222221","rare"
"3742.100000023842","false","fever,headache","76","90,76","C","A","","","test","11","true","","categorize-html","59","418514","0.0-6.0-20.0","75634","20222221","rare"
"1048.8999999761581","false","fever","76","90,76","C","","","","test","12","true","","categorize-html","61","421073","0.0-6.0-22.0","75634","20222221","rare"
"1576.3999999761581","false","headache","90","90,76","A","","","","test","13","true","","categorize-html","63","424167","0.0-6.0-24.0","75634","20222221","common"
"2664.4000000953674","false","headache,fever","76","90,76","A","C","","","test","14","true","","categorize-html","65","428349","0.0-6.0-26.0","75634","20222221","rare"
"994.3000000715256","false","fever","76","90,76","C","","","","test","15","true","","categorize-html","67","430876","0.0-6.0-28.0","75634","20222221","rare"
"2331.0999999046326","false","rash,headache","90","90,76","B","A","","","test","16","true","","categorize-html","69","434724","0.0-6.0-30.0","75634","20222221","common"
"1361.8000000715256","false","rash","90","90,76","B","","","","test","17","true","","categorize-html","71","437599","0.0-6.0-32.0","75634","20222221","common"
"2387.6999999284744","false","fever,headache","76","90,76","C","A","","","test","18","true","","categorize-html","73","441502","0.0-6.0-34.0","75634","20222221","rare"
"1013.2000000476837","false","fever","76","90,76","C","","","","test","19","true","","categorize-html","75","444027","0.0-6.0-36.0","75634","20222221","rare"
"3966.1999999284744","false","fever,rash","76","90,76","C","B","","","test","20","true","","categorize-html","77","449515","0.0-6.0-38.0","75634","20222221","rare"
"1806.3000000715256","false","rash","90","90,76","B","","","","test","21","true","","categorize-html","79","452838","0.0-6.0-40.0","75634","20222221","common"
"1127.7999999523163","false","headache","90","90,76","A","","","","test","22","true","","categorize-html","81","455482","0.0-6.0-42.0","75634","20222221","common"
"3010.600000023842","false","headache,rash","90","90,76","A","B","","","test","23","true","","categorize-html","83","460002","0.0-6.0-44.0","75634","20222221","common"
"1714.2999999523163","false","rash,fever","76","90,76","B","C","","","test","24","true","","categorize-html","85","463235","0.0-6.0-46.0","75634","20222221","rare"
"934","false","fever","76","90,76","C","","","","test","25","true","","categorize-html","88","468886","0.0-6.0-49.0","75634","20222221","rare"
"786.2000000476837","false","headache,fever","76","90,76","A","C","","","test","26","true","","categorize-html","90","471180","0.0-6.0-51.0","75634","20222221","rare"
"1264.5","false","rash","90","90,76","B","","","","test","27","true","","categorize-html","92","473955","0.0-6.0-53.0","75634","20222221","common"
"8495.100000023842","false","rash","90","90,76","B","","","","test","28","true","","categorize-html","94","483976","0.0-6.0-55.0","75634","20222221","common"
"753","false","headache","90","90,76","A","","","","test","29","true","","categorize-html","96","486239","0.0-6.0-57.0","75634","20222221","common"
"994.3999999761581","false","fever,rash","76","90,76","C","B","","","test","30","true","","categorize-html","98","488738","0.0-6.0-59.0","75634","20222221","rare"
"2581.899999976158","false","rash,headache","90","90,76","B","A","","","test","31","true","","categorize-html","100","492833","0.0-6.0-61.0","75634","20222221","common"
"1302.3000000715256","false","rash,fever","76","90,76","B","C","","","test","32","true","","categorize-html","102","495663","0.0-6.0-63.0","75634","20222221","rare"
"2641.2999999523163","false","fever","76","90,76","C","","","","test","33","true","","categorize-html","104","499822","0.0-6.0-65.0","75634","20222221","rare"
"2289.2999999523163","false","fever,headache","76","90,76","C","A","","","test","34","true","","categorize-html","106","503618","0.0-6.0-67.0","75634","20222221","rare"
"2842.6999999284744","false","headache,rash","90","90,76","A","B","","","test","35","true","","categorize-html","108","507969","0.0-6.0-69.0","75634","20222221","common"
"1025.6999999284744","false","headache","90","90,76","A","","","","test","36","true","","categorize-html","110","510514","0.0-6.0-71.0","75634","20222221","common"
"1025.8999999761581","false","headache,rash","90","90,76","A","B","","","test","37","true","","categorize-html","112","513056","0.0-6.0-73.0","75634","20222221","common"
"901.3999999761581","false","headache","90","90,76","A","","","","test","38","true","","categorize-html","114","515472","0.0-6.0-75.0","75634","20222221","common"
"903.4000000953674","false","fever,rash","90","90,76","C","B","","","test","39","true","","categorize-html","116","517895","0.0-6.0-77.0","75634","20222221","common"
"3786.600000023842","false","fever","76","90,76","C","","","","test","40","true","","categorize-html","118","523199","0.0-6.0-79.0","75634","20222221","rare"
"1241.9000000953674","false","rash","90","90,76","B","","","","test","41","true","","categorize-html","120","525956","0.0-6.0-81.0","75634","20222221","common"
"1223.6000000238419","false","fever,headache","90","90,76","C","A","","","test","42","true","","categorize-html","122","528689","0.0-6.0-83.0","75634","20222221","common"
"2182.7000000476837","false","rash","90","90,76","B","","","","test","43","true","","categorize-html","124","532392","0.0-6.0-85.0","75634","20222221","common"
"984.0999999046326","false","headache,fever","76","90,76","A","C","","","test","44","true","","categorize-html","126","534903","0.0-6.0-87.0","75634","20222221","rare"
"989","false","fever","76","90,76","C","","","","test","45","true","","categorize-html","128","537406","0.0-6.0-89.0","75634","20222221","rare"
"859.1999999284744","false","rash,fever","76","90,76","B","C","","","test","46","true","","categorize-html","130","539789","0.0-6.0-91.0","75634","20222221","rare"
"1192.8999999761581","false","rash,headache","90","90,76","B","A","","","test","47","true","","categorize-html","132","542489","0.0-6.0-93.0","75634","20222221","common"
"1261.5","false","headache","90","90,76","A","","","","test","48","true","","categorize-html","134","545256","0.0-6.0-95.0","75634","20222221","common"
"2513.5","false","rash","90","90,76","B","","","","test","49","true","","categorize-html","137","551183","0.0-6.0-98.0","75634","20222221","common"
"1048.5","false","rash,headache","90","90,76","B","A","","","test","50","true","","categorize-html","139","553749","0.0-6.0-100.0","75634","20222221","common"
"2133","false","rash","90","90,76","B","","","","test","51","true","","categorize-html","141","557403","0.0-6.0-102.0","75634","20222221","common"
"1488.2000000476837","false","fever,rash","76","90,76","C","B","","","test","52","true","","categorize-html","143","560407","0.0-6.0-104.0","75634","20222221","rare"
"1827.1999999284744","false","headache,fever","76","90,76","A","C","","","test","53","true","","categorize-html","145","563756","0.0-6.0-106.0","75634","20222221","rare"
"2616.600000023842","false","headache","90","90,76","A","","","","test","54","true","","categorize-html","147","567899","0.0-6.0-108.0","75634","20222221","common"
"1495.6999999284744","false","fever","76","90,76","C","","","","test","55","true","","categorize-html","149","570910","0.0-6.0-110.0","75634","20222221","rare"
"777.3999999761581","false","headache","76","90,76","A","","","","test","56","true","","categorize-html","151","573202","0.0-6.0-112.0","75634","20222221","rare"
"2391.2999999523163","false","fever","76","90,76","C","","","","test","57","true","","categorize-html","153","577111","0.0-6.0-114.0","75634","20222221","rare"
"1649.6999999284744","false","fever,headache","76","90,76","C","A","","","test","58","true","","categorize-html","155","580285","0.0-6.0-116.0","75634","20222221","rare"
"4632.600000023842","false","rash,fever","76","90,76","B","C","","","test","59","true","","categorize-html","157","586427","0.0-6.0-118.0","75634","20222221","rare"
"5371.399999976158","false","headache,rash","90","90,76","A","B","","","test","60","true","","categorize-html","159","593315","0.0-6.0-120.0","75634","20222221","common"
"1231.3999999761581","false","rash","90","90,76","B","","","","test","61","true","","categorize-html","161","596076","0.0-6.0-122.0","75634","20222221","common"
"772.3000000715256","false","headache","90","90,76","A","","","","test","62","true","","categorize-html","163","598358","0.0-6.0-124.0","75634","20222221","common"
"863.7999999523163","false","headache,fever","76","90,76","A","C","","","test","63","true","","categorize-html","165","600741","0.0-6.0-126.0","75634","20222221","rare"
"813.8999999761581","false","headache,rash","90","90,76","A","B","","","test","64","true","","categorize-html","167","603079","0.0-6.0-128.0","75634","20222221","common"
"786","false","rash","90","90,76","B","","","","test","65","true","","categorize-html","169","605388","0.0-6.0-130.0","75634","20222221","common"
"756.3000000715256","false","fever","76","90,76","C","","","","test","66","true","","categorize-html","171","607663","0.0-6.0-132.0","75634","20222221","rare"
"4701.299999952316","false","headache","90","90,76","A","","","","test","67","true","","categorize-html","173","613890","0.0-6.0-134.0","75634","20222221","common"
"754.8999999761581","false","rash,headache","90","90,76","B","A","","","test","68","true","","categorize-html","175","616163","0.0-6.0-136.0","75634","20222221","common"
"1875.1999999284744","false","fever","76","90,76","C","","","","test","69","true","","categorize-html","177","619552","0.0-6.0-138.0","75634","20222221","rare"
"1355.1000000238419","false","fever,rash","76","90,76","C","B","","","test","70","true","","categorize-html","179","622422","0.0-6.0-140.0","75634","20222221","rare"
"3500.2000000476837","false","rash,fever","76","90,76","B","C","","","test","71","true","","categorize-html","181","627440","0.0-6.0-142.0","75634","20222221","rare"
"2718.1999999284744","false","fever,headache","76","90,76","C","A","","","test","72","true","","categorize-html","183","631674","0.0-6.0-144.0","75634","20222221","rare"
"1143.9000000953674","false","headache","90","90,76","A","","","","test","73","true","","categorize-html","186","636007","0.0-6.0-147.0","75634","20222221","common"
"2936.6999999284744","false","fever,headache","76","90,76","C","A","","","test","74","true","","categorize-html","188","640463","0.0-6.0-149.0","75634","20222221","rare"
"2069.2999999523163","false","rash,fever","90","90,76","B","C","","","test","75","true","","categorize-html","190","644058","0.0-6.0-151.0","75634","20222221","common"
"929.8000000715256","false","rash","90","90,76","B","","","","test","76","true","","categorize-html","192","646499","0.0-6.0-153.0","75634","20222221","common"
"756.7999999523163","false","fever","76","90,76","C","","","","test","77","true","","categorize-html","194","648775","0.0-6.0-155.0","75634","20222221","rare"
"1170.3000000715256","false","rash","90","90,76","B","","","","test","78","true","","categorize-html","196","651459","0.0-6.0-157.0","75634","20222221","common"
"1631.2000000476837","false","rash,headache","90","90,76","B","A","","","test","79","true","","categorize-html","198","654606","0.0-6.0-159.0","75634","20222221","common"
"850","false","fever,rash","76","90,76","C","B","","","test","80","true","","categorize-html","200","656968","0.0-6.0-161.0","75634","20222221","rare"
"1319.6999999284744","false","headache","90","90,76","A","","","","test","81","true","","categorize-html","202","659811","0.0-6.0-163.0","75634","20222221","common"
"4760.600000023842","false","headache,fever","76","90,76","A","C","","","test","82","true","","categorize-html","204","666093","0.0-6.0-165.0","75634","20222221","rare"
"2343.899999976158","false","fever","76","90,76","C","","","","test","83","true","","categorize-html","206","669951","0.0-6.0-167.0","75634","20222221","rare"
"2700","false","headache,rash","90","90,76","A","B","","","test","84","true","","categorize-html","208","674164","0.0-6.0-169.0","75634","20222221","common"
"1703.6000000238419","false","rash","90","90,76","B","","","","test","85","true","","categorize-html","210","677382","0.0-6.0-171.0","75634","20222221","common"
"901.6000000238419","false","headache","90","90,76","A","","","","test","86","true","","categorize-html","212","679803","0.0-6.0-173.0","75634","20222221","common"
"1446.2999999523163","false","fever,rash","76","90,76","C","B","","","test","87","true","","categorize-html","214","682772","0.0-6.0-175.0","75634","20222221","rare"
"1215.0999999046326","false","headache","90","90,76","A","","","","test","88","true","","categorize-html","216","685500","0.0-6.0-177.0","75634","20222221","common"
"1373.8999999761581","false","fever","76","90,76","C","","","","test","89","true","","categorize-html","218","688389","0.0-6.0-179.0","75634","20222221","rare"
"1875.6000000238419","false","rash,headache","90","90,76","B","A","","","test","90","true","","categorize-html","220","691782","0.0-6.0-181.0","75634","20222221","common"
"976.8999999761581","false","rash,fever","76","90,76","B","C","","","test","91","true","","categorize-html","222","694271","0.0-6.0-183.0","75634","20222221","rare"
"828.6999999284744","false","headache,fever","76","90,76","A","C","","","test","92","true","","categorize-html","224","696613","0.0-6.0-185.0","75634","20222221","rare"
"1246.8000000715256","false","rash","90","90,76","B","","","","test","93","true","","categorize-html","226","699380","0.0-6.0-187.0","75634","20222221","common"
"1417.7999999523163","false","headache,rash","90","90,76","A","B","","","test","94","true","","categorize-html","228","702321","0.0-6.0-189.0","75634","20222221","common"
"3983.100000023842","false","fever","76","90,76","C","","","","test","95","true","","categorize-html","230","707836","0.0-6.0-191.0","75634","20222221","rare"
"727.1000000238419","false","fever,headache","76","90,76","C","A","","","test","96","true","","categorize-html","232","710078","0.0-6.0-193.0","75634","20222221","rare"
"3084.6999999284744","false","fever","76","90,76","C","","","","test","97","true","","categorize-html","235","716128","0.0-6.0-196.0","75634","20222221","rare"
"612.3999999761581","false","fever,rash","76","90,76","C","B","","","test","98","true","","categorize-html","237","718252","0.0-6.0-198.0","75634","20222221","rare"
"445.40000009536743","false","fever","76","90,76","C","","","","test","99","true","","categorize-html","239","720221","0.0-6.0-200.0","75634","20222221","rare"
"885.8999999761581","false","headache,fever","90","90,76","A","C","","","test","100","true","","categorize-html","241","722617","0.0-6.0-202.0","75634","20222221","common"
"880.3999999761581","false","headache","90","90,76","A","","","","test","101","true","","categorize-html","243","725012","0.0-6.0-204.0","75634","20222221","common"
"2779.899999976158","false","rash","90","90,76","B","","","","test","102","true","","categorize-html","245","729312","0.0-6.0-206.0","75634","20222221","common"
"4081.2999999523163","false","rash,fever","90","90,76","B","C","","","test","103","true","","categorize-html","247","734924","0.0-6.0-208.0","75634","20222221","common"
"3069","false","headache","90","90,76","A","","","","test","104","true","","categorize-html","249","739521","0.0-6.0-210.0","75634","20222221","common"
"1427.5999999046326","false","headache,rash","90","90,76","A","B","","","test","105","true","","categorize-html","251","742472","0.0-6.0-212.0","75634","20222221","common"
"1767.1999999284744","false","rash","90","90,76","B","","","","test","106","true","","categorize-html","253","745763","0.0-6.0-214.0","75634","20222221","common"
"1959.6000000238419","false","rash,headache","90","90,76","B","A","","","test","107","true","","categorize-html","255","749235","0.0-6.0-216.0","75634","20222221","common"
"882.1000000238419","false","fever,headache","90","90,76","C","A","","","test","108","true","","categorize-html","257","751629","0.0-6.0-218.0","75634","20222221","common"
"683.3999999761581","false","fever,headache","76","90,76","C","A","","","test","109","true","","categorize-html","259","753834","0.0-6.0-220.0","75634","20222221","rare"
"2375.100000023842","false","headache","90","90,76","A","","","","test","110","true","","categorize-html","261","757719","0.0-6.0-222.0","75634","20222221","common"
"1073.7000000476837","false","headache,rash","90","90,76","A","B","","","test","111","true","","categorize-html","263","760304","0.0-6.0-224.0","75634","20222221","common"
"1140","false","rash,headache","90","90,76","B","A","","","test","112","true","","categorize-html","265","762965","0.0-6.0-226.0","75634","20222221","common"
"1039.7999999523163","false","rash,fever","76","90,76","B","C","","","test","113","true","","categorize-html","267","765528","0.0-6.0-228.0","75634","20222221","rare"
"1572.8999999761581","false","rash","90","90,76","B","","","","test","114","true","","categorize-html","269","768624","0.0-6.0-230.0","75634","20222221","common"
"3364","false","rash","90","90,76","B","","","","test","115","true","","categorize-html","271","773494","0.0-6.0-232.0","75634","20222221","common"
"807.2999999523163","false","fever","76","90,76","C","","","","test","116","true","","categorize-html","273","775819","0.0-6.0-234.0","75634","20222221","rare"
"1309.3000000715256","false","fever,rash","76","90,76","C","B","","","test","117","true","","categorize-html","275","778638","0.0-6.0-236.0","75634","20222221","rare"
"901.3000000715256","false","headache","90","90,76","A","","","","test","118","true","","categorize-html","277","781062","0.0-6.0-238.0","75634","20222221","common"
"1576.7999999523163","false","headache,fever","76","90,76","A","C","","","test","119","true","","categorize-html","279","784163","0.0-6.0-240.0","75634","20222221","rare"
"648.8000000715256","false","fever","76","90,76","C","","","","test","120","true","","categorize-html","281","786342","0.0-6.0-242.0","75634","20222221","rare"
