"rt","correct","stimulus","key_press","keys","symptom1","symptom2","key","category","phase","trial","include","block","trial_type","trial_index","time_elapsed","internal_node_id","ppt","session","abresp"
"4914.399999856949","false","fever,rash","32","76,90","A","C","90","rare","training","1","true","1","categorize-html","4","679569","0.0-4.0-0.0","72997","20222217","none"
"4085.300000190735","false","rash,fever","32","76,90","C","A","90","rare","training","2","true","1","categorize-html","6","684677","0.0-4.0-2.0","72997","20222217","none"
"4161.899999856949","false","fever,headache","32","76,90","A","B","76","common","training","3","true","1","categorize-html","8","689850","0.0-4.0-4.0","72997","20222217","none"
"2199.2999999523163","false","fever,headache","32","76,90","A","B","76","common","training","4","true","1","categorize-html","10","693076","0.0-4.0-6.0","72997","20222217","none"
"3255.100000143051","false","headache,fever","32","76,90","B","A","76","common","training","5","true","1","categorize-html","12","697354","0.0-4.0-8.0","72997","20222217","none"
"1592.4000000953674","false","headache,fever","32","76,90","B","A","76","common","training","6","true","1","categorize-html","14","699966","0.0-4.0-10.0","72997","20222217","none"
"1398.9000000953674","false","fever,headache","32","76,90","A","B","76","common","training","7","true","1","categorize-html","16","702386","0.0-4.0-12.0","72997","20222217","none"
"1868.0999999046326","false","headache,fever","32","76,90","B","A","76","common","training","8","true","1","categorize-html","18","705287","0.0-4.0-14.0","72997","20222217","none"
"1805.8000001907349","false","fever,headache","32","76,90","A","B","76","common","training","9","true","2","categorize-html","21","711204","0.0-4.0-17.0","72997","20222217","none"
"null","false","fever,rash","null","76,90","A","C","90","rare","training","10","true","2","categorize-html","23","717220","0.0-4.0-19.0","72997","20222217","none"
"3689.5","false","headache,fever","32","76,90","B","A","76","common","training","11","true","2","categorize-html","25","721916","0.0-4.0-21.0","72997","20222217","none"
"2106.2999999523163","false","headache,fever","32","76,90","B","A","76","common","training","12","true","2","categorize-html","27","725034","0.0-4.0-23.0","72997","20222217","none"
"1603","false","headache,fever","32","76,90","B","A","76","common","training","13","true","2","categorize-html","29","727662","0.0-4.0-25.0","72997","20222217","none"
"4613.900000095367","false","fever,headache","32","76,90","A","B","76","common","training","14","true","2","categorize-html","31","733285","0.0-4.0-27.0","72997","20222217","none"
"1825.5","false","fever,headache","32","76,90","A","B","76","common","training","15","true","2","categorize-html","33","736143","0.0-4.0-29.0","72997","20222217","none"
"2969.600000143051","false","rash,fever","32","76,90","C","A","90","rare","training","16","true","2","categorize-html","35","740130","0.0-4.0-31.0","72997","20222217","none"
"2634.2999999523163","false","fever,headache","32","76,90","A","B","76","common","training","17","true","3","categorize-html","38","752668","0.0-4.0-34.0","72997","20222217","none"
"2205","false","rash,fever","32","76,90","C","A","90","rare","training","18","true","3","categorize-html","40","755900","0.0-4.0-36.0","72997","20222217","none"
"3509.2000000476837","false","headache,fever","32","76,90","B","A","76","common","training","19","true","3","categorize-html","42","760434","0.0-4.0-38.0","72997","20222217","none"
"1365.7999999523163","false","headache,fever","32","76,90","B","A","76","common","training","20","true","3","categorize-html","44","762813","0.0-4.0-40.0","72997","20222217","none"
"1296.7999999523163","false","headache,fever","32","76,90","B","A","76","common","training","21","true","3","categorize-html","46","765127","0.0-4.0-42.0","72997","20222217","none"
"1283.2999999523163","false","fever,headache","32","76,90","A","B","76","common","training","22","true","3","categorize-html","48","767428","0.0-4.0-44.0","72997","20222217","none"
"1695.5","false","fever,rash","32","76,90","A","C","90","rare","training","23","true","3","categorize-html","50","770132","0.0-4.0-46.0","72997","20222217","none"
"1544.7999999523163","false","fever,headache","32","76,90","A","B","76","common","training","24","true","3","categorize-html","52","772688","0.0-4.0-48.0","72997","20222217","none"
"5166.400000095367","false","fever","76","76,90","A","","","","test","1","true","","categorize-html","56","802097","0.0-6.0-0.0","72997","20222217","common"
"2043.5","false","rash","90","76,90","C","","","","test","2","true","","categorize-html","58","805663","0.0-6.0-2.0","72997","20222217","rare"
"1420.8999998569489","false","fever,rash","90","76,90","A","C","","","test","3","true","","categorize-html","60","808607","0.0-6.0-4.0","72997","20222217","rare"
"4737.299999952316","false","fever","76","76,90","A","","","","test","4","true","","categorize-html","62","814867","0.0-6.0-6.0","72997","20222217","common"
"3726.2999999523163","false","headache,fever","90","76,90","B","A","","","test","5","true","","categorize-html","64","820112","0.0-6.0-8.0","72997","20222217","rare"
"1811.8000001907349","false","rash,fever","90","76,90","C","A","","","test","6","true","","categorize-html","66","823437","0.0-6.0-10.0","72997","20222217","rare"
"1950.5","false","rash","90","76,90","C","","","","test","7","true","","categorize-html","68","826899","0.0-6.0-12.0","72997","20222217","rare"
"766.5","false","fever,headache","76","76,90","A","B","","","test","8","true","","categorize-html","70","829191","0.0-6.0-14.0","72997","20222217","common"
"759.7000000476837","false","rash,headache","76","76,90","C","B","","","test","9","true","","categorize-html","72","831469","0.0-6.0-16.0","72997","20222217","common"
"1145.5","false","headache","90","76,90","B","","","","test","10","true","","categorize-html","74","834129","0.0-6.0-18.0","72997","20222217","rare"
"1054.7999999523163","false","headache","90","76,90","B","","","","test","11","true","","categorize-html","76","836703","0.0-6.0-20.0","72997","20222217","rare"
"1111.7999999523163","false","headache,rash","90","76,90","B","C","","","test","12","true","","categorize-html","78","839330","0.0-6.0-22.0","72997","20222217","rare"
"633.4000000953674","false","headache,rash","90","76,90","B","C","","","test","13","true","","categorize-html","80","841489","0.0-6.0-24.0","72997","20222217","rare"
"1036.7000000476837","false","fever,headache","76","76,90","A","B","","","test","14","true","","categorize-html","82","844040","0.0-6.0-26.0","72997","20222217","common"
"869.5","false","fever,rash","76","76,90","A","C","","","test","15","true","","categorize-html","84","846419","0.0-6.0-28.0","72997","20222217","common"
"1577.6000001430511","false","fever","76","76,90","A","","","","test","16","true","","categorize-html","86","849514","0.0-6.0-30.0","72997","20222217","common"
"1064.0999999046326","false","rash,headache","90","76,90","C","B","","","test","17","true","","categorize-html","88","852095","0.0-6.0-32.0","72997","20222217","rare"
"519.2999999523163","false","headache","90","76,90","B","","","","test","18","true","","categorize-html","90","854135","0.0-6.0-34.0","72997","20222217","rare"
"1165.5","false","headache,fever","90","76,90","B","A","","","test","19","true","","categorize-html","92","856818","0.0-6.0-36.0","72997","20222217","rare"
"923.7999999523163","false","headache","90","76,90","B","","","","test","20","true","","categorize-html","94","859261","0.0-6.0-38.0","72997","20222217","rare"
"1419.5999999046326","false","fever","90","76,90","A","","","","test","21","true","","categorize-html","96","862204","0.0-6.0-40.0","72997","20222217","rare"
"2502.2999999523163","false","rash","90","76,90","C","","","","test","22","true","","categorize-html","98","866221","0.0-6.0-42.0","72997","20222217","rare"
"958.5999999046326","false","rash,fever","76","76,90","C","A","","","test","23","true","","categorize-html","100","868714","0.0-6.0-44.0","72997","20222217","common"
"861","false","rash","90","76,90","C","","","","test","24","true","","categorize-html","102","871106","0.0-6.0-46.0","72997","20222217","rare"
"1270.3999998569489","false","fever","76","76,90","A","","","","test","25","true","","categorize-html","105","1002048","0.0-6.0-49.0","72997","20222217","common"
"1169","false","rash,headache","90","76,90","C","B","","","test","26","true","","categorize-html","107","1004729","0.0-6.0-51.0","72997","20222217","rare"
"602.5","false","headache","90","76,90","B","","","","test","27","true","","categorize-html","109","1006859","0.0-6.0-53.0","72997","20222217","rare"
"1058.2999999523163","false","headache","90","76,90","B","","","","test","28","true","","categorize-html","111","1009454","0.0-6.0-55.0","72997","20222217","rare"
"927.7000000476837","false","headache,rash","90","76,90","B","C","","","test","29","true","","categorize-html","113","1011896","0.0-6.0-57.0","72997","20222217","rare"
"899.7999999523163","false","fever,headache","76","76,90","A","B","","","test","30","true","","categorize-html","115","1014314","0.0-6.0-59.0","72997","20222217","common"
"1025.2000000476837","false","headache,fever","90","76,90","B","A","","","test","31","true","","categorize-html","117","1016867","0.0-6.0-61.0","72997","20222217","rare"
"1499.4000000953674","false","fever","76","76,90","A","","","","test","32","true","","categorize-html","119","1019882","0.0-6.0-63.0","72997","20222217","common"
"1549.6000001430511","false","fever,rash","76","76,90","A","C","","","test","33","true","","categorize-html","121","1022943","0.0-6.0-65.0","72997","20222217","common"
"1309.7999999523163","false","rash","76","76,90","C","","","","test","34","true","","categorize-html","123","1025770","0.0-6.0-67.0","72997","20222217","common"
"1091","false","rash,fever","76","76,90","C","A","","","test","35","true","","categorize-html","125","1028372","0.0-6.0-69.0","72997","20222217","common"
"2090.7999999523163","false","rash","76","76,90","C","","","","test","36","true","","categorize-html","127","1031980","0.0-6.0-71.0","72997","20222217","common"
"800.6000001430511","false","headache,fever","90","76,90","B","A","","","test","37","true","","categorize-html","129","1034307","0.0-6.0-73.0","72997","20222217","rare"
"1258.9000000953674","false","rash","76","76,90","C","","","","test","38","true","","categorize-html","131","1037083","0.0-6.0-75.0","72997","20222217","common"
"532.8000001907349","false","rash","76","76,90","C","","","","test","39","true","","categorize-html","133","1039128","0.0-6.0-77.0","72997","20222217","common"
"1155","false","rash,headache","76","76,90","C","B","","","test","40","true","","categorize-html","135","1041802","0.0-6.0-79.0","72997","20222217","common"
"498.89999985694885","false","fever","76","76,90","A","","","","test","41","true","","categorize-html","137","1043812","0.0-6.0-81.0","72997","20222217","common"
"877.5","false","fever,headache","90","76,90","A","B","","","test","42","true","","categorize-html","139","1046206","0.0-6.0-83.0","72997","20222217","rare"
"663.4000000953674","false","headache","90","76,90","B","","","","test","43","true","","categorize-html","141","1048381","0.0-6.0-85.0","72997","20222217","rare"
"519.6000001430511","false","headache","90","76,90","B","","","","test","44","true","","categorize-html","143","1050414","0.0-6.0-87.0","72997","20222217","rare"
"678.4000000953674","false","headache,rash","90","76,90","B","C","","","test","45","true","","categorize-html","145","1052617","0.0-6.0-89.0","72997","20222217","rare"
"1136","false","rash,fever","76","76,90","C","A","","","test","46","true","","categorize-html","147","1055272","0.0-6.0-91.0","72997","20222217","common"
"552","false","fever","76","76,90","A","","","","test","47","true","","categorize-html","149","1057339","0.0-6.0-93.0","72997","20222217","common"
"728.5999999046326","false","fever,rash","76","76,90","A","C","","","test","48","true","","categorize-html","151","1059587","0.0-6.0-95.0","72997","20222217","common"
"1532.2999999523163","false","fever,headache","90","76,90","A","B","","","test","49","true","","categorize-html","154","1064526","0.0-6.0-98.0","72997","20222217","rare"
"1452.7000000476837","false","rash,headache","76","76,90","C","B","","","test","50","true","","categorize-html","156","1067499","0.0-6.0-100.0","72997","20222217","common"
"809.9000000953674","false","fever","76","76,90","A","","","","test","51","true","","categorize-html","158","1069838","0.0-6.0-102.0","72997","20222217","common"
"534.9000000953674","false","headache","90","76,90","B","","","","test","52","true","","categorize-html","160","1071897","0.0-6.0-104.0","72997","20222217","rare"
"2135","false","headache,rash","90","76,90","B","C","","","test","53","true","","categorize-html","162","1075566","0.0-6.0-106.0","72997","20222217","rare"
"643.6999998092651","false","headache","90","76,90","B","","","","test","54","true","","categorize-html","164","1077722","0.0-6.0-108.0","72997","20222217","rare"
"872.2999999523163","false","rash,fever","76","76,90","C","A","","","test","55","true","","categorize-html","166","1080120","0.0-6.0-110.0","72997","20222217","common"
"599.2000000476837","false","rash","76","76,90","C","","","","test","56","true","","categorize-html","168","1082236","0.0-6.0-112.0","72997","20222217","common"
"691.8999998569489","false","fever,rash","76","76,90","A","C","","","test","57","true","","categorize-html","170","1084435","0.0-6.0-114.0","72997","20222217","common"
"975.5","false","rash","76","76,90","C","","","","test","58","true","","categorize-html","172","1086924","0.0-6.0-116.0","72997","20222217","common"
"1594.5","false","fever","76","76,90","A","","","","test","59","true","","categorize-html","174","1090036","0.0-6.0-118.0","72997","20222217","common"
"693.5999999046326","false","headache,fever","90","76,90","B","A","","","test","60","true","","categorize-html","176","1092237","0.0-6.0-120.0","72997","20222217","rare"
"806.5999999046326","false","headache","90","76,90","B","","","","test","61","true","","categorize-html","178","1094570","0.0-6.0-122.0","72997","20222217","rare"
"750.2999999523163","false","headache,fever","90","76,90","B","A","","","test","62","true","","categorize-html","180","1096832","0.0-6.0-124.0","72997","20222217","rare"
"488.90000009536743","false","rash","76","76,90","C","","","","test","63","true","","categorize-html","182","1098840","0.0-6.0-126.0","72997","20222217","common"
"483.09999990463257","false","headache","90","76,90","B","","","","test","64","true","","categorize-html","184","1100846","0.0-6.0-128.0","72997","20222217","rare"
"755.9000000953674","false","headache,rash","90","76,90","B","C","","","test","65","true","","categorize-html","186","1103111","0.0-6.0-130.0","72997","20222217","rare"
"531.6000001430511","false","fever","76","76,90","A","","","","test","66","true","","categorize-html","188","1105161","0.0-6.0-132.0","72997","20222217","common"
"2092.2999999523163","false","rash,fever","76","76,90","C","A","","","test","67","true","","categorize-html","190","1108778","0.0-6.0-134.0","72997","20222217","common"
"668.2999999523163","false","rash,headache","90","76,90","C","B","","","test","68","true","","categorize-html","192","1110962","0.0-6.0-136.0","72997","20222217","rare"
"2485","false","rash","76","76,90","C","","","","test","69","true","","categorize-html","194","1114955","0.0-6.0-138.0","72997","20222217","common"
"834.0999999046326","false","fever","76","76,90","A","","","","test","70","true","","categorize-html","196","1117308","0.0-6.0-140.0","72997","20222217","common"
"1732.7999999523163","false","fever,headache","90","76,90","A","B","","","test","71","true","","categorize-html","198","1120568","0.0-6.0-142.0","72997","20222217","rare"
"1231.2000000476837","false","fever,rash","90","76,90","A","C","","","test","72","true","","categorize-html","200","1123325","0.0-6.0-144.0","72997","20222217","rare"
"1710.6999998092651","false","headache","90","76,90","B","","","","test","73","true","","categorize-html","203","1284074","0.0-6.0-147.0","72997","20222217","rare"
"1537.0999999046326","false","fever","76","76,90","A","","","","test","74","true","","categorize-html","205","1287130","0.0-6.0-149.0","72997","20222217","common"
"1239","false","fever,rash","76","76,90","A","C","","","test","75","true","","categorize-html","207","1289881","0.0-6.0-151.0","72997","20222217","common"
"1188.5","false","rash,headache","76","76,90","C","B","","","test","76","true","","categorize-html","209","1292591","0.0-6.0-153.0","72997","20222217","common"
"783.2000000476837","false","fever,headache","90","76,90","A","B","","","test","77","true","","categorize-html","211","1294889","0.0-6.0-155.0","72997","20222217","rare"
"1190.1000001430511","false","rash","76","76,90","C","","","","test","78","true","","categorize-html","213","1297595","0.0-6.0-157.0","72997","20222217","common"
"789.2000000476837","false","headache,rash","90","76,90","B","C","","","test","79","true","","categorize-html","215","1299900","0.0-6.0-159.0","72997","20222217","rare"
"1037.5","false","rash,fever","90","76,90","C","A","","","test","80","true","","categorize-html","217","1302447","0.0-6.0-161.0","72997","20222217","rare"
"612.1999998092651","false","fever","76","76,90","A","","","","test","81","true","","categorize-html","219","1304575","0.0-6.0-163.0","72997","20222217","common"
"704.2999999523163","false","headache,fever","90","76,90","B","A","","","test","82","true","","categorize-html","221","1306800","0.0-6.0-165.0","72997","20222217","rare"
"1460.6000001430511","false","rash","76","76,90","C","","","","test","83","true","","categorize-html","223","1309781","0.0-6.0-167.0","72997","20222217","common"
"615.1000001430511","false","headache","90","76,90","B","","","","test","84","true","","categorize-html","225","1311910","0.0-6.0-169.0","72997","20222217","rare"
"607.9000000953674","false","rash","90","76,90","C","","","","test","85","true","","categorize-html","227","1314044","0.0-6.0-171.0","72997","20222217","rare"
"1492","false","fever,headache","90","76,90","A","B","","","test","86","true","","categorize-html","229","1317042","0.0-6.0-173.0","72997","20222217","rare"
"613.0999999046326","false","fever,rash","90","76,90","A","C","","","test","87","true","","categorize-html","231","1319167","0.0-6.0-175.0","72997","20222217","rare"
"866.7999999523163","false","headache","90","76,90","B","","","","test","88","true","","categorize-html","233","1321557","0.0-6.0-177.0","72997","20222217","rare"
"1330.9000000953674","false","headache","90","76,90","B","","","","test","89","true","","categorize-html","235","1324409","0.0-6.0-179.0","72997","20222217","rare"
"1488.8000001907349","false","rash,fever","76","76,90","C","A","","","test","90","true","","categorize-html","237","1327411","0.0-6.0-181.0","72997","20222217","common"
"3894.4000000953674","false","fever","76","76,90","A","","","","test","91","true","","categorize-html","239","1332816","0.0-6.0-183.0","72997","20222217","common"
"1126.3999998569489","false","fever","76","76,90","A","","","","test","92","true","","categorize-html","241","1335461","0.0-6.0-185.0","72997","20222217","common"
"5103.299999952316","false","headache,fever","90","76,90","B","A","","","test","93","true","","categorize-html","243","1342087","0.0-6.0-187.0","72997","20222217","rare"
"891.9000000953674","false","rash,headache","76","76,90","C","B","","","test","94","true","","categorize-html","245","1344486","0.0-6.0-189.0","72997","20222217","common"
"574.5","false","headache,rash","90","76,90","B","C","","","test","95","true","","categorize-html","247","1346590","0.0-6.0-191.0","72997","20222217","rare"
"1196.6000001430511","false","rash","90","76,90","C","","","","test","96","true","","categorize-html","249","1349317","0.0-6.0-193.0","72997","20222217","rare"
"790.0999999046326","false","headache","90","76,90","B","","","","test","97","true","","categorize-html","252","1352717","0.0-6.0-196.0","72997","20222217","rare"
"1545","false","headache,rash","76","76,90","B","C","","","test","98","true","","categorize-html","254","1355773","0.0-6.0-198.0","72997","20222217","common"
"1093.5","false","rash,fever","90","76,90","C","A","","","test","99","true","","categorize-html","256","1358391","0.0-6.0-200.0","72997","20222217","rare"
"806.4000000953674","false","rash","76","76,90","C","","","","test","100","true","","categorize-html","258","1360713","0.0-6.0-202.0","72997","20222217","common"
"1248.0999999046326","false","fever,headache","90","76,90","A","B","","","test","101","true","","categorize-html","260","1363496","0.0-6.0-204.0","72997","20222217","rare"
"1245.5999999046326","false","fever,rash","76","76,90","A","C","","","test","102","true","","categorize-html","262","1366252","0.0-6.0-206.0","72997","20222217","common"
"2686.5999999046326","false","rash,headache","76","76,90","C","B","","","test","103","true","","categorize-html","264","1370466","0.0-6.0-208.0","72997","20222217","common"
"1871.0999999046326","false","rash","76","76,90","C","","","","test","104","true","","categorize-html","266","1373858","0.0-6.0-210.0","72997","20222217","common"
"771.7999999523163","false","headache","90","76,90","B","","","","test","105","true","","categorize-html","268","1376145","0.0-6.0-212.0","72997","20222217","rare"
"1828.3000001907349","false","headache,fever","90","76,90","B","A","","","test","106","true","","categorize-html","270","1379496","0.0-6.0-214.0","72997","20222217","rare"
"574.9000000953674","false","fever","76","76,90","A","","","","test","107","true","","categorize-html","272","1381601","0.0-6.0-216.0","72997","20222217","common"
"506.59999990463257","false","fever","76","76,90","A","","","","test","108","true","","categorize-html","274","1383625","0.0-6.0-218.0","72997","20222217","common"
"1791","false","rash","76","76,90","C","","","","test","109","true","","categorize-html","276","1386932","0.0-6.0-220.0","72997","20222217","common"
"1061.2999999523163","false","rash,headache","76","76,90","C","B","","","test","110","true","","categorize-html","278","1389512","0.0-6.0-222.0","72997","20222217","common"
"429.59999990463257","false","headache","90","76,90","B","","","","test","111","true","","categorize-html","280","1391457","0.0-6.0-224.0","72997","20222217","rare"
"608.2999999523163","false","headache","90","76,90","B","","","","test","112","true","","categorize-html","282","1393592","0.0-6.0-226.0","72997","20222217","rare"
"1152.6000001430511","false","fever,headache","90","76,90","A","B","","","test","113","true","","categorize-html","284","1396280","0.0-6.0-228.0","72997","20222217","rare"
"1541.7999999523163","false","headache,rash","76","76,90","B","C","","","test","114","true","","categorize-html","286","1399339","0.0-6.0-230.0","72997","20222217","common"
"2063.2999999523163","false","headache,fever","90","76,90","B","A","","","test","115","true","","categorize-html","288","1402914","0.0-6.0-232.0","72997","20222217","rare"
"719.1000001430511","false","fever","76","76,90","A","","","","test","116","true","","categorize-html","290","1405158","0.0-6.0-234.0","72997","20222217","common"
"525.4000000953674","false","fever","76","76,90","A","","","","test","117","true","","categorize-html","292","1407196","0.0-6.0-236.0","72997","20222217","common"
"928","false","fever,rash","76","76,90","A","C","","","test","118","true","","categorize-html","294","1409644","0.0-6.0-238.0","72997","20222217","common"
"1366.6000001430511","false","rash,fever","76","76,90","C","A","","","test","119","true","","categorize-html","296","1412531","0.0-6.0-240.0","72997","20222217","common"
"846.2000000476837","false","rash","76","76,90","C","","","","test","120","true","","categorize-html","298","1414892","0.0-6.0-242.0","72997","20222217","common"
