"rt","correct","stimulus","key_press","keys","symptom1","symptom2","key","category","phase","trial","include","block","trial_type","trial_index","time_elapsed","internal_node_id","ppt","session","abresp"
"null","false","rash,headache","null","90,76","B","A","90","common","training","1","true","1","categorize-html","4","61280","0.0-4.0-0.0","73411","2022239","none"
"3904.300000000745","true","rash,headache","90","90,76","B","A","90","common","training","2","true","1","categorize-html","6","66194","0.0-4.0-2.0","73411","2022239","common"
"803.2999999988824","true","headache,rash","90","90,76","A","B","90","common","training","3","true","1","categorize-html","8","68008","0.0-4.0-4.0","73411","2022239","common"
"789.7999999988824","true","fever,headache","76","90,76","C","A","76","rare","training","4","true","1","categorize-html","10","69805","0.0-4.0-6.0","73411","2022239","rare"
"515","true","headache,rash","90","90,76","A","B","90","common","training","5","true","1","categorize-html","12","71326","0.0-4.0-8.0","73411","2022239","common"
"801.8000000007451","true","headache,fever","76","90,76","A","C","76","rare","training","6","true","1","categorize-html","14","73136","0.0-4.0-10.0","73411","2022239","rare"
"480.09999999962747","true","rash,headache","90","90,76","B","A","90","common","training","7","true","1","categorize-html","16","74624","0.0-4.0-12.0","73411","2022239","common"
"898.2000000011176","true","headache,rash","90","90,76","A","B","90","common","training","8","true","1","categorize-html","18","76530","0.0-4.0-14.0","73411","2022239","common"
"2187.9000000003725","true","fever,headache","76","90,76","C","A","76","rare","training","9","true","2","categorize-html","21","108648","0.0-4.0-17.0","73411","2022239","rare"
"694.5999999996275","true","headache,rash","90","90,76","A","B","90","common","training","10","true","2","categorize-html","23","110349","0.0-4.0-19.0","73411","2022239","common"
"434.6000000014901","true","rash,headache","90","90,76","B","A","90","common","training","11","true","2","categorize-html","25","111798","0.0-4.0-21.0","73411","2022239","common"
"413.2999999988824","true","headache,rash","90","90,76","A","B","90","common","training","12","true","2","categorize-html","27","113221","0.0-4.0-23.0","73411","2022239","common"
"408.30000000074506","true","rash,headache","90","90,76","B","A","90","common","training","13","true","2","categorize-html","29","114637","0.0-4.0-25.0","73411","2022239","common"
"312.30000000074506","false","rash,headache","76","90,76","B","A","90","common","training","14","true","2","categorize-html","31","115961","0.0-4.0-27.0","73411","2022239","rare"
"528","true","headache,fever","76","90,76","A","C","76","rare","training","15","true","2","categorize-html","33","117493","0.0-4.0-29.0","73411","2022239","rare"
"1505.5","true","headache,rash","90","90,76","A","B","90","common","training","16","true","2","categorize-html","35","120004","0.0-4.0-31.0","73411","2022239","common"
"944.0999999996275","true","headache,rash","90","90,76","A","B","90","common","training","17","true","3","categorize-html","38","131175","0.0-4.0-34.0","73411","2022239","common"
"455.09999999962747","true","rash,headache","90","90,76","B","A","90","common","training","18","true","3","categorize-html","40","132641","0.0-4.0-36.0","73411","2022239","common"
"449.90000000037253","true","rash,headache","90","90,76","B","A","90","common","training","19","true","3","categorize-html","42","134106","0.0-4.0-38.0","73411","2022239","common"
"344.80000000074506","true","headache,rash","90","90,76","A","B","90","common","training","20","true","3","categorize-html","44","135458","0.0-4.0-40.0","73411","2022239","common"
"548.9000000003725","true","headache,fever","76","90,76","A","C","76","rare","training","21","true","3","categorize-html","46","137017","0.0-4.0-42.0","73411","2022239","rare"
"420.8999999985099","true","rash,headache","90","90,76","B","A","90","common","training","22","true","3","categorize-html","48","138449","0.0-4.0-44.0","73411","2022239","common"
"471.2000000011176","true","headache,rash","90","90,76","A","B","90","common","training","23","true","3","categorize-html","50","139929","0.0-4.0-46.0","73411","2022239","common"
"892.4000000003725","true","fever,headache","76","90,76","C","A","76","rare","training","24","true","3","categorize-html","52","141831","0.0-4.0-48.0","73411","2022239","rare"
"900.4000000003725","true","rash,headache","90","90,76","B","A","90","common","training","25","true","4","categorize-html","55","148390","0.0-4.0-51.0","73411","2022239","common"
"343.19999999925494","true","headache,rash","90","90,76","A","B","90","common","training","26","true","4","categorize-html","57","149742","0.0-4.0-53.0","73411","2022239","common"
"383.09999999962747","true","headache,rash","90","90,76","A","B","90","common","training","27","true","4","categorize-html","59","151140","0.0-4.0-55.0","73411","2022239","common"
"512.0999999996275","true","fever,headache","76","90,76","C","A","76","rare","training","28","true","4","categorize-html","61","152666","0.0-4.0-57.0","73411","2022239","rare"
"583.9000000003725","true","headache,rash","90","90,76","A","B","90","common","training","29","true","4","categorize-html","63","154267","0.0-4.0-59.0","73411","2022239","common"
"406.30000000074506","true","rash,headache","90","90,76","B","A","90","common","training","30","true","4","categorize-html","65","155686","0.0-4.0-61.0","73411","2022239","common"
"260.80000000074506","true","rash,headache","90","90,76","B","A","90","common","training","31","true","4","categorize-html","67","156958","0.0-4.0-63.0","73411","2022239","common"
"667.3999999985099","true","headache,fever","76","90,76","A","C","76","rare","training","32","true","4","categorize-html","69","158639","0.0-4.0-65.0","73411","2022239","rare"
"736.5","true","headache,rash","90","90,76","A","B","90","common","training","33","true","5","categorize-html","72","163993","0.0-4.0-68.0","73411","2022239","common"
"560.5999999996275","true","rash,headache","90","90,76","B","A","90","common","training","34","true","5","categorize-html","74","165557","0.0-4.0-70.0","73411","2022239","common"
"361.09999999962747","true","fever,headache","76","90,76","C","A","76","rare","training","35","true","5","categorize-html","76","166927","0.0-4.0-72.0","73411","2022239","rare"
"402.59999999962747","true","headache,fever","76","90,76","A","C","76","rare","training","36","true","5","categorize-html","78","168337","0.0-4.0-74.0","73411","2022239","rare"
"605.1000000014901","true","rash,headache","90","90,76","B","A","90","common","training","37","true","5","categorize-html","80","169957","0.0-4.0-76.0","73411","2022239","common"
"431","true","rash,headache","90","90,76","B","A","90","common","training","38","true","5","categorize-html","82","171395","0.0-4.0-78.0","73411","2022239","common"
"376.5","true","headache,rash","90","90,76","A","B","90","common","training","39","true","5","categorize-html","84","172779","0.0-4.0-80.0","73411","2022239","common"
"546.7999999988824","true","headache,rash","90","90,76","A","B","90","common","training","40","true","5","categorize-html","86","174335","0.0-4.0-82.0","73411","2022239","common"
"3694.5","false","headache,fever","76","90,76","A","C","","","test","1","true","","categorize-html","90","218278","0.0-6.0-0.0","73411","2022239","rare"
"1780.7000000011176","false","fever,headache","76","90,76","C","A","","","test","2","true","","categorize-html","92","221565","0.0-6.0-2.0","73411","2022239","rare"
"1505.199999999255","false","headache","90","90,76","A","","","","test","3","true","","categorize-html","94","224585","0.0-6.0-4.0","73411","2022239","common"
"1275.8999999985099","false","fever,rash","90","90,76","C","B","","","test","4","true","","categorize-html","96","227372","0.0-6.0-6.0","73411","2022239","common"
"1321","false","headache","90","90,76","A","","","","test","5","true","","categorize-html","98","230205","0.0-6.0-8.0","73411","2022239","common"
"1194.4000000003725","false","rash","90","90,76","B","","","","test","6","true","","categorize-html","100","232909","0.0-6.0-10.0","73411","2022239","common"
"615.6999999992549","false","rash","90","90,76","B","","","","test","7","true","","categorize-html","102","235033","0.0-6.0-12.0","73411","2022239","common"
"861.5","false","rash,headache","90","90,76","B","A","","","test","8","true","","categorize-html","104","237407","0.0-6.0-14.0","73411","2022239","common"
"1115.5","false","fever","90","90,76","C","","","","test","9","true","","categorize-html","106","240033","0.0-6.0-16.0","73411","2022239","common"
"733.4000000003725","false","rash,fever","76","90,76","B","C","","","test","10","true","","categorize-html","108","242274","0.0-6.0-18.0","73411","2022239","rare"
"1861.5999999996275","false","headache,rash","90","90,76","A","B","","","test","11","true","","categorize-html","110","245645","0.0-6.0-20.0","73411","2022239","common"
"1902.300000000745","false","fever","76","90,76","C","","","","test","12","true","","categorize-html","112","249062","0.0-6.0-22.0","73411","2022239","rare"
"619.5999999996275","false","fever,headache","76","90,76","C","A","","","test","13","true","","categorize-html","114","251194","0.0-6.0-24.0","73411","2022239","rare"
"741.4000000003725","false","rash","90","90,76","B","","","","test","14","true","","categorize-html","116","253443","0.0-6.0-26.0","73411","2022239","common"
"1369.5","false","headache","76","90,76","A","","","","test","15","true","","categorize-html","118","256321","0.0-6.0-28.0","73411","2022239","rare"
"1326.4000000003725","false","rash,headache","90","90,76","B","A","","","test","16","true","","categorize-html","120","259156","0.0-6.0-30.0","73411","2022239","common"
"710.2000000011176","false","headache","90","90,76","A","","","","test","17","true","","categorize-html","122","261373","0.0-6.0-32.0","73411","2022239","common"
"771.1000000014901","false","headache,rash","90","90,76","A","B","","","test","18","true","","categorize-html","124","263653","0.0-6.0-34.0","73411","2022239","common"
"1187.699999999255","false","headache,fever","76","90,76","A","C","","","test","19","true","","categorize-html","126","266347","0.0-6.0-36.0","73411","2022239","rare"
"1230.5","false","rash,fever","90","90,76","B","C","","","test","20","true","","categorize-html","128","269085","0.0-6.0-38.0","73411","2022239","common"
"702.5","false","fever","76","90,76","C","","","","test","21","true","","categorize-html","130","271299","0.0-6.0-40.0","73411","2022239","rare"
"671","false","rash","90","90,76","B","","","","test","22","true","","categorize-html","132","273481","0.0-6.0-42.0","73411","2022239","common"
"764","false","fever","76","90,76","C","","","","test","23","true","","categorize-html","134","275753","0.0-6.0-44.0","73411","2022239","rare"
"745.5999999996275","false","fever,rash","90","90,76","C","B","","","test","24","true","","categorize-html","136","278007","0.0-6.0-46.0","73411","2022239","common"
"1073.3999999985099","false","fever,rash","90","90,76","C","B","","","test","25","true","","categorize-html","139","283237","0.0-6.0-49.0","73411","2022239","common"
"765.7000000011176","false","rash","90","90,76","B","","","","test","26","true","","categorize-html","141","285509","0.0-6.0-51.0","73411","2022239","common"
"605","false","headache,rash","90","90,76","A","B","","","test","27","true","","categorize-html","143","287623","0.0-6.0-53.0","73411","2022239","common"
"2067.5999999996275","false","rash,headache","90","90,76","B","A","","","test","28","true","","categorize-html","145","291195","0.0-6.0-55.0","73411","2022239","common"
"969.3000000007451","false","headache","76","90,76","A","","","","test","29","true","","categorize-html","147","293676","0.0-6.0-57.0","73411","2022239","rare"
"1009.9000000003725","false","rash","76","90,76","B","","","","test","30","true","","categorize-html","149","296195","0.0-6.0-59.0","73411","2022239","rare"
"784.5","false","rash,fever","76","90,76","B","C","","","test","31","true","","categorize-html","151","298492","0.0-6.0-61.0","73411","2022239","rare"
"1083.800000000745","false","fever","90","90,76","C","","","","test","32","true","","categorize-html","153","301085","0.0-6.0-63.0","73411","2022239","common"
"981","false","headache","90","90,76","A","","","","test","33","true","","categorize-html","155","303581","0.0-6.0-65.0","73411","2022239","common"
"714.9000000003725","false","fever,headache","90","90,76","C","A","","","test","34","true","","categorize-html","157","305808","0.0-6.0-67.0","73411","2022239","common"
"774.1999999992549","false","fever","90","90,76","C","","","","test","35","true","","categorize-html","159","308092","0.0-6.0-69.0","73411","2022239","common"
"653.2999999988824","false","headache,fever","90","90,76","A","C","","","test","36","true","","categorize-html","161","310257","0.0-6.0-71.0","73411","2022239","common"
"1027.5999999996275","false","fever,rash","90","90,76","C","B","","","test","37","true","","categorize-html","163","312789","0.0-6.0-73.0","73411","2022239","common"
"1409.699999999255","false","fever","76","90,76","C","","","","test","38","true","","categorize-html","165","315711","0.0-6.0-75.0","73411","2022239","rare"
"570.3000000007451","false","headache","90","90,76","A","","","","test","39","true","","categorize-html","167","317796","0.0-6.0-77.0","73411","2022239","common"
"351.3999999985099","false","rash","76","90,76","B","","","","test","40","true","","categorize-html","169","319660","0.0-6.0-79.0","73411","2022239","rare"
"468.90000000037253","false","headache,rash","90","90,76","A","B","","","test","41","true","","categorize-html","171","321642","0.0-6.0-81.0","73411","2022239","common"
"203","false","fever,headache","76","90,76","C","A","","","test","42","true","","categorize-html","173","323357","0.0-6.0-83.0","73411","2022239","rare"
"463.80000000074506","false","headache,fever","76","90,76","A","C","","","test","43","true","","categorize-html","175","325328","0.0-6.0-85.0","73411","2022239","rare"
"982","false","headache","76","90,76","A","","","","test","44","true","","categorize-html","177","327824","0.0-6.0-87.0","73411","2022239","rare"
"153.2999999988824","false","fever","90","90,76","C","","","","test","45","true","","categorize-html","179","329485","0.0-6.0-89.0","73411","2022239","common"
"250.5","false","rash","76","90,76","B","","","","test","46","true","","categorize-html","181","331249","0.0-6.0-91.0","73411","2022239","rare"
"1906.4000000003725","false","rash,headache","90","90,76","B","A","","","test","47","true","","categorize-html","183","334665","0.0-6.0-93.0","73411","2022239","common"
"1200.0999999996275","false","rash,fever","76","90,76","B","C","","","test","48","true","","categorize-html","185","337379","0.0-6.0-95.0","73411","2022239","rare"
"922.5","false","headache","90","90,76","A","","","","test","49","true","","categorize-html","188","341782","0.0-6.0-98.0","73411","2022239","common"
"1072.9000000003725","false","rash","76","90,76","B","","","","test","50","true","","categorize-html","190","344370","0.0-6.0-100.0","73411","2022239","rare"
"1235.5999999996275","false","fever,headache","76","90,76","C","A","","","test","51","true","","categorize-html","192","347120","0.0-6.0-102.0","73411","2022239","rare"
"452.30000000074506","false","rash,fever","90","90,76","B","C","","","test","52","true","","categorize-html","194","349084","0.0-6.0-104.0","73411","2022239","common"
"634.1999999992549","false","fever","76","90,76","C","","","","test","53","true","","categorize-html","196","351230","0.0-6.0-106.0","73411","2022239","rare"
"1364","false","headache","90","90,76","A","","","","test","54","true","","categorize-html","198","354106","0.0-6.0-108.0","73411","2022239","common"
"573.5999999996275","false","rash,headache","90","90,76","B","A","","","test","55","true","","categorize-html","200","356194","0.0-6.0-110.0","73411","2022239","common"
"995.9000000003725","false","fever","76","90,76","C","","","","test","56","true","","categorize-html","202","358703","0.0-6.0-112.0","73411","2022239","rare"
"983.6999999992549","false","fever,rash","76","90,76","C","B","","","test","57","true","","categorize-html","204","361201","0.0-6.0-114.0","73411","2022239","rare"
"1403.0999999996275","false","headache,fever","90","90,76","A","C","","","test","58","true","","categorize-html","206","364114","0.0-6.0-116.0","73411","2022239","common"
"621.8000000007451","false","headache,rash","90","90,76","A","B","","","test","59","true","","categorize-html","208","366251","0.0-6.0-118.0","73411","2022239","common"
"2534","false","rash","90","90,76","B","","","","test","60","true","","categorize-html","210","370295","0.0-6.0-120.0","73411","2022239","common"
"1309.9000000003725","false","headache,rash","76","90,76","A","B","","","test","61","true","","categorize-html","212","373117","0.0-6.0-122.0","73411","2022239","rare"
"238.7999999988824","false","rash,headache","90","90,76","B","A","","","test","62","true","","categorize-html","214","374868","0.0-6.0-124.0","73411","2022239","common"
"373.59999999962747","false","headache","76","90,76","A","","","","test","63","true","","categorize-html","216","376754","0.0-6.0-126.0","73411","2022239","rare"
"156.30000000074506","false","rash","90","90,76","B","","","","test","64","true","","categorize-html","218","378424","0.0-6.0-128.0","73411","2022239","common"
"967.7999999988824","false","headache,fever","90","90,76","A","C","","","test","65","true","","categorize-html","220","380896","0.0-6.0-130.0","73411","2022239","common"
"168.09999999962747","false","fever,headache","90","90,76","C","A","","","test","66","true","","categorize-html","222","382575","0.0-6.0-132.0","73411","2022239","common"
"1471.699999999255","false","fever,rash","76","90,76","C","B","","","test","67","true","","categorize-html","224","385558","0.0-6.0-134.0","73411","2022239","rare"
"1085.0999999996275","false","rash","90","90,76","B","","","","test","68","true","","categorize-html","226","388156","0.0-6.0-136.0","73411","2022239","common"
"283","false","rash,fever","76","90,76","B","C","","","test","69","true","","categorize-html","228","389953","0.0-6.0-138.0","73411","2022239","rare"
"468.2999999988824","false","headache","90","90,76","A","","","","test","70","true","","categorize-html","230","391934","0.0-6.0-140.0","73411","2022239","common"
"629.1000000014901","false","fever","76","90,76","C","","","","test","71","true","","categorize-html","232","394075","0.0-6.0-142.0","73411","2022239","rare"
"398.59999999962747","false","fever","76","90,76","C","","","","test","72","true","","categorize-html","234","395982","0.0-6.0-144.0","73411","2022239","rare"
"766","false","fever","76","90,76","C","","","","test","73","true","","categorize-html","237","399573","0.0-6.0-147.0","73411","2022239","rare"
"564.5999999996275","false","fever","76","90,76","C","","","","test","74","true","","categorize-html","239","401650","0.0-6.0-149.0","73411","2022239","rare"
"701.9000000003725","false","fever,rash","76","90,76","C","B","","","test","75","true","","categorize-html","241","403860","0.0-6.0-151.0","73411","2022239","rare"
"1327.699999999255","false","headache,rash","90","90,76","A","B","","","test","76","true","","categorize-html","243","406699","0.0-6.0-153.0","73411","2022239","common"
"424.90000000037253","false","rash,headache","90","90,76","B","A","","","test","77","true","","categorize-html","245","408633","0.0-6.0-155.0","73411","2022239","common"
"619.1999999992549","false","rash","90","90,76","B","","","","test","78","true","","categorize-html","247","410760","0.0-6.0-157.0","73411","2022239","common"
"699.7000000011176","false","headache","76","90,76","A","","","","test","79","true","","categorize-html","249","412975","0.0-6.0-159.0","73411","2022239","rare"
"382.69999999925494","false","rash","90","90,76","B","","","","test","80","true","","categorize-html","251","414871","0.0-6.0-161.0","73411","2022239","common"
"580.5999999996275","false","headache,fever","90","90,76","A","C","","","test","81","true","","categorize-html","253","416963","0.0-6.0-163.0","73411","2022239","common"
"491.30000000074506","false","rash,fever","90","90,76","B","C","","","test","82","true","","categorize-html","255","418965","0.0-6.0-165.0","73411","2022239","common"
"400.90000000037253","false","headache","90","90,76","A","","","","test","83","true","","categorize-html","257","420878","0.0-6.0-167.0","73411","2022239","common"
"1131.2000000011176","false","fever,headache","76","90,76","C","A","","","test","84","true","","categorize-html","259","423514","0.0-6.0-169.0","73411","2022239","rare"
"296","false","rash","90","90,76","B","","","","test","85","true","","categorize-html","261","425325","0.0-6.0-171.0","73411","2022239","common"
"284","false","fever","76","90,76","C","","","","test","86","true","","categorize-html","263","427124","0.0-6.0-173.0","73411","2022239","rare"
"765.1999999992549","false","headache","90","90,76","A","","","","test","87","true","","categorize-html","265","429401","0.0-6.0-175.0","73411","2022239","common"
"440","false","headache","90","90,76","A","","","","test","88","true","","categorize-html","267","431354","0.0-6.0-177.0","73411","2022239","common"
"415.90000000037253","false","rash,headache","90","90,76","B","A","","","test","89","true","","categorize-html","269","433279","0.0-6.0-179.0","73411","2022239","common"
"581.5","false","fever","76","90,76","C","","","","test","90","true","","categorize-html","271","435369","0.0-6.0-181.0","73411","2022239","rare"
"493.3999999985099","false","headache,fever","90","90,76","A","C","","","test","91","true","","categorize-html","273","437371","0.0-6.0-183.0","73411","2022239","common"
"1474.2999999988824","false","rash,fever","76","90,76","B","C","","","test","92","true","","categorize-html","275","440354","0.0-6.0-185.0","73411","2022239","rare"
"626.1999999992549","false","fever,headache","76","90,76","C","A","","","test","93","true","","categorize-html","277","442489","0.0-6.0-187.0","73411","2022239","rare"
"491.69999999925494","false","fever,rash","76","90,76","C","B","","","test","94","true","","categorize-html","279","444490","0.0-6.0-189.0","73411","2022239","rare"
"885.2999999988824","false","headache,rash","90","90,76","A","B","","","test","95","true","","categorize-html","281","446889","0.0-6.0-191.0","73411","2022239","common"
"1076.7000000011176","false","rash","90","90,76","B","","","","test","96","true","","categorize-html","283","449476","0.0-6.0-193.0","73411","2022239","common"
"1057.5","false","fever,rash","76","90,76","C","B","","","test","97","true","","categorize-html","286","453289","0.0-6.0-196.0","73411","2022239","rare"
"299","false","headache,rash","90","90,76","A","B","","","test","98","true","","categorize-html","288","455099","0.0-6.0-198.0","73411","2022239","common"
"308.2999999988824","false","fever,headache","76","90,76","C","A","","","test","99","true","","categorize-html","290","456918","0.0-6.0-200.0","73411","2022239","rare"
"196","false","rash,fever","90","90,76","B","C","","","test","100","true","","categorize-html","292","458623","0.0-6.0-202.0","73411","2022239","common"
"293.09999999962747","false","headache","76","90,76","A","","","","test","101","true","","categorize-html","294","460422","0.0-6.0-204.0","73411","2022239","rare"
"246.7000000011176","false","fever","90","90,76","C","","","","test","102","true","","categorize-html","296","462181","0.0-6.0-206.0","73411","2022239","common"
"233.7999999988824","false","fever","76","90,76","C","","","","test","103","true","","categorize-html","298","463929","0.0-6.0-208.0","73411","2022239","rare"
"2604.2000000011176","false","rash,headache","90","90,76","B","A","","","test","104","true","","categorize-html","300","468043","0.0-6.0-210.0","73411","2022239","common"
"217.5","false","headache,fever","90","90,76","A","C","","","test","105","true","","categorize-html","302","469771","0.0-6.0-212.0","73411","2022239","common"
"441.3999999985099","false","rash","90","90,76","B","","","","test","106","true","","categorize-html","304","471727","0.0-6.0-214.0","73411","2022239","common"
"407","false","rash","90","90,76","B","","","","test","107","true","","categorize-html","306","473649","0.0-6.0-216.0","73411","2022239","common"
"827.5","false","headache","90","90,76","A","","","","test","108","true","","categorize-html","308","475985","0.0-6.0-218.0","73411","2022239","common"
"733.1999999992549","false","headache,fever","76","90,76","A","C","","","test","109","true","","categorize-html","310","478229","0.0-6.0-220.0","73411","2022239","rare"
"796.0999999996275","false","fever,headache","76","90,76","C","A","","","test","110","true","","categorize-html","312","480538","0.0-6.0-222.0","73411","2022239","rare"
"798.0999999996275","false","headache","90","90,76","A","","","","test","111","true","","categorize-html","314","482850","0.0-6.0-224.0","73411","2022239","common"
"1830.199999999255","false","fever,rash","90","90,76","C","B","","","test","112","true","","categorize-html","316","486189","0.0-6.0-226.0","73411","2022239","common"
"692.3000000007451","false","rash,headache","90","90,76","B","A","","","test","113","true","","categorize-html","318","488393","0.0-6.0-228.0","73411","2022239","common"
"548.2000000011176","false","fever","76","90,76","C","","","","test","114","true","","categorize-html","320","490452","0.0-6.0-230.0","73411","2022239","rare"
"681.9000000003725","false","headache","90","90,76","A","","","","test","115","true","","categorize-html","322","492643","0.0-6.0-232.0","73411","2022239","common"
"545.0999999996275","false","fever","76","90,76","C","","","","test","116","true","","categorize-html","324","494698","0.0-6.0-234.0","73411","2022239","rare"
"625.1000000014901","false","rash","90","90,76","B","","","","test","117","true","","categorize-html","326","496835","0.0-6.0-236.0","73411","2022239","common"
"598.3000000007451","false","rash","90","90,76","B","","","","test","118","true","","categorize-html","328","498947","0.0-6.0-238.0","73411","2022239","common"
"606.1999999992549","false","rash,fever","90","90,76","B","C","","","test","119","true","","categorize-html","330","501066","0.0-6.0-240.0","73411","2022239","common"
"2013.300000000745","false","headache,rash","90","90,76","A","B","","","test","120","true","","categorize-html","332","504594","0.0-6.0-242.0","73411","2022239","common"
