"rt","correct","stimulus","key_press","keys","symptom1","symptom2","key","category","phase","trial","include","block","trial_type","trial_index","time_elapsed","internal_node_id","ppt","session","abresp"
"3552","false","rash,headache","32","76,90","A","B","76","common","training","1","true","1","categorize-html","4","102014","0.0-4.0-0.0","75715","20222216","none"
"null","false","fever,rash","null","76,90","C","A","90","rare","training","2","true","1","categorize-html","6","108038","0.0-4.0-2.0","75715","20222216","none"
"3844.100000023842","false","headache,rash","32","76,90","B","A","76","common","training","3","true","1","categorize-html","8","112889","0.0-4.0-4.0","75715","20222216","none"
"2101.2999999523163","false","headache,rash","32","76,90","B","A","76","common","training","4","true","1","categorize-html","10","116006","0.0-4.0-6.0","75715","20222216","none"
"2112.2999999523163","false","rash,fever","32","76,90","A","C","90","rare","training","5","true","1","categorize-html","12","119141","0.0-4.0-8.0","75715","20222216","none"
"2024.699999988079","false","rash,headache","32","76,90","A","B","76","common","training","6","true","1","categorize-html","14","122184","0.0-4.0-10.0","75715","20222216","none"
"1609","false","rash,headache","32","76,90","A","B","76","common","training","7","true","1","categorize-html","16","124818","0.0-4.0-12.0","75715","20222216","none"
"1753.1000000238419","false","headache,rash","32","76,90","B","A","76","common","training","8","true","1","categorize-html","18","127582","0.0-4.0-14.0","75715","20222216","none"
"3091.300000011921","false","fever,rash","32","76,90","C","A","90","rare","training","9","true","2","categorize-html","21","137910","0.0-4.0-17.0","75715","20222216","none"
"2654.5","false","headache,rash","32","76,90","B","A","76","common","training","10","true","2","categorize-html","23","141578","0.0-4.0-19.0","75715","20222216","none"
"2344.300000011921","false","rash,headache","32","76,90","A","B","76","common","training","11","true","2","categorize-html","25","144939","0.0-4.0-21.0","75715","20222216","none"
"1310.0999999642372","false","rash,headache","32","76,90","A","B","76","common","training","12","true","2","categorize-html","27","147276","0.0-4.0-23.0","75715","20222216","none"
"1356.4000000357628","false","headache,rash","32","76,90","B","A","76","common","training","13","true","2","categorize-html","29","149655","0.0-4.0-25.0","75715","20222216","none"
"1931.2000000476837","false","headache,rash","32","76,90","B","A","76","common","training","14","true","2","categorize-html","31","152594","0.0-4.0-27.0","75715","20222216","none"
"1130.6000000238419","false","rash,headache","32","76,90","A","B","76","common","training","15","true","2","categorize-html","33","154740","0.0-4.0-29.0","75715","20222216","none"
"991.8000000119209","false","rash,fever","32","76,90","A","C","90","rare","training","16","true","2","categorize-html","35","156757","0.0-4.0-31.0","75715","20222216","none"
"1950.300000011921","false","headache","76","76,90","B","","","","test","1","true","","categorize-html","39","194167","0.0-6.0-0.0","75715","20222216","common"
"5104.800000011921","false","rash","76","76,90","A","","","","test","2","true","","categorize-html","41","200801","0.0-6.0-2.0","75715","20222216","common"
"1661.800000011921","false","headache","76","76,90","B","","","","test","3","true","","categorize-html","43","203984","0.0-6.0-4.0","75715","20222216","common"
"1307.699999988079","false","fever,rash","90","76,90","C","A","","","test","4","true","","categorize-html","45","206807","0.0-6.0-6.0","75715","20222216","rare"
"4153.5","false","rash","90","76,90","A","","","","test","5","true","","categorize-html","47","212484","0.0-6.0-8.0","75715","20222216","rare"
"2201.400000035763","false","rash,headache","76","76,90","A","B","","","test","6","true","","categorize-html","49","216199","0.0-6.0-10.0","75715","20222216","common"
"1960.199999988079","false","fever","90","76,90","C","","","","test","7","true","","categorize-html","51","219690","0.0-6.0-12.0","75715","20222216","rare"
"1054.5","false","fever","90","76,90","C","","","","test","8","true","","categorize-html","53","222263","0.0-6.0-14.0","75715","20222216","rare"
"1432.699999988079","false","headache,rash","76","76,90","B","A","","","test","9","true","","categorize-html","55","225221","0.0-6.0-16.0","75715","20222216","common"
"1417.5","false","headache,fever","76","76,90","B","C","","","test","10","true","","categorize-html","57","228152","0.0-6.0-18.0","75715","20222216","common"
"2203.399999976158","false","rash,fever","90","76,90","A","C","","","test","11","true","","categorize-html","59","231873","0.0-6.0-20.0","75715","20222216","rare"
"5972.699999988079","false","fever,headache","90","76,90","C","B","","","test","12","true","","categorize-html","61","239375","0.0-6.0-22.0","75715","20222216","rare"
"3105.199999988079","false","rash","90","76,90","A","","","","test","13","true","","categorize-html","63","243991","0.0-6.0-24.0","75715","20222216","rare"
"1586.300000011921","false","fever","90","76,90","C","","","","test","14","true","","categorize-html","65","247108","0.0-6.0-26.0","75715","20222216","rare"
"1259","false","headache","76","76,90","B","","","","test","15","true","","categorize-html","67","249880","0.0-6.0-28.0","75715","20222216","common"
"1160","false","fever","90","76,90","C","","","","test","16","true","","categorize-html","69","252547","0.0-6.0-30.0","75715","20222216","rare"
"1060.300000011921","false","headache","76","76,90","B","","","","test","17","true","","categorize-html","71","255133","0.0-6.0-32.0","75715","20222216","common"
"2304.199999988079","false","rash,fever","90","76,90","A","C","","","test","18","true","","categorize-html","73","258955","0.0-6.0-34.0","75715","20222216","rare"
"2350.699999988079","false","headache,fever","76","76,90","B","C","","","test","19","true","","categorize-html","75","262825","0.0-6.0-36.0","75715","20222216","common"
"1484","false","fever,headache","90","76,90","C","B","","","test","20","true","","categorize-html","77","265822","0.0-6.0-38.0","75715","20222216","rare"
"2018.0999999642372","false","headache,rash","90","76,90","B","A","","","test","21","true","","categorize-html","79","269356","0.0-6.0-40.0","75715","20222216","rare"
"1128.3999999761581","false","rash,headache","76","76,90","A","B","","","test","22","true","","categorize-html","81","272004","0.0-6.0-42.0","75715","20222216","common"
"2672.5","false","rash","76","76,90","A","","","","test","23","true","","categorize-html","83","276195","0.0-6.0-44.0","75715","20222216","common"
"1358.300000011921","false","fever,rash","90","76,90","C","A","","","test","24","true","","categorize-html","85","279075","0.0-6.0-46.0","75715","20222216","rare"
"2027","false","fever,headache","90","76,90","C","B","","","test","25","true","","categorize-html","88","285546","0.0-6.0-49.0","75715","20222216","rare"
"1165.8999999761581","false","fever","90","76,90","C","","","","test","26","true","","categorize-html","90","288228","0.0-6.0-51.0","75715","20222216","rare"
"1302.6000000238419","false","rash","76","76,90","A","","","","test","27","true","","categorize-html","92","291046","0.0-6.0-53.0","75715","20222216","common"
"865.6000000238419","false","fever","90","76,90","C","","","","test","28","true","","categorize-html","94","293437","0.0-6.0-55.0","75715","20222216","rare"
"1538.699999988079","false","rash","90","76,90","A","","","","test","29","true","","categorize-html","96","296496","0.0-6.0-57.0","75715","20222216","rare"
"1223.3999999761581","false","rash,fever","90","76,90","A","C","","","test","30","true","","categorize-html","98","299238","0.0-6.0-59.0","75715","20222216","rare"
"1460.1000000238419","false","fever,rash","90","76,90","C","A","","","test","31","true","","categorize-html","100","302224","0.0-6.0-61.0","75715","20222216","rare"
"1114.0999999642372","false","rash,headache","76","76,90","A","B","","","test","32","true","","categorize-html","102","304845","0.0-6.0-63.0","75715","20222216","common"
"1505","false","headache","76","76,90","B","","","","test","33","true","","categorize-html","104","307868","0.0-6.0-65.0","75715","20222216","common"
"1484","false","headache,fever","90","76,90","B","C","","","test","34","true","","categorize-html","106","310884","0.0-6.0-67.0","75715","20222216","rare"
"1508.199999988079","false","headache,rash","76","76,90","B","A","","","test","35","true","","categorize-html","108","313920","0.0-6.0-69.0","75715","20222216","common"
"720.5999999642372","false","headache","76","76,90","B","","","","test","36","true","","categorize-html","110","316157","0.0-6.0-71.0","75715","20222216","common"
"1435.199999988079","false","headache,rash","76","76,90","B","A","","","test","37","true","","categorize-html","112","319104","0.0-6.0-73.0","75715","20222216","common"
"741.4000000357628","false","headache","76","76,90","B","","","","test","38","true","","categorize-html","114","321370","0.0-6.0-75.0","75715","20222216","common"
"927.6000000238419","false","rash,headache","76","76,90","A","B","","","test","39","true","","categorize-html","116","323828","0.0-6.0-77.0","75715","20222216","common"
"2456.300000011921","false","rash","90","76,90","A","","","","test","40","true","","categorize-html","118","327806","0.0-6.0-79.0","75715","20222216","rare"
"1480.5","false","rash","90","76,90","A","","","","test","41","true","","categorize-html","120","330806","0.0-6.0-81.0","75715","20222216","rare"
"859.1000000238419","false","headache","76","76,90","B","","","","test","42","true","","categorize-html","122","333181","0.0-6.0-83.0","75715","20222216","common"
"831.1000000238419","false","fever","90","76,90","C","","","","test","43","true","","categorize-html","124","335529","0.0-6.0-85.0","75715","20222216","rare"
"1240.2999999523163","false","headache,fever","90","76,90","B","C","","","test","44","true","","categorize-html","126","338281","0.0-6.0-87.0","75715","20222216","rare"
"1385.699999988079","false","rash,fever","90","76,90","A","C","","","test","45","true","","categorize-html","128","341196","0.0-6.0-89.0","75715","20222216","rare"
"884","false","fever","90","76,90","C","","","","test","46","true","","categorize-html","130","343602","0.0-6.0-91.0","75715","20222216","rare"
"894.0999999642372","false","fever,rash","90","76,90","C","A","","","test","47","true","","categorize-html","132","346009","0.0-6.0-93.0","75715","20222216","rare"
"1726","false","fever,headache","76","76,90","C","B","","","test","48","true","","categorize-html","134","349251","0.0-6.0-95.0","75715","20222216","common"
"1011.1999999880791","false","headache","76","76,90","B","","","","test","49","true","","categorize-html","137","354935","0.0-6.0-98.0","75715","20222216","common"
"661.5999999642372","false","fever","90","76,90","C","","","","test","50","true","","categorize-html","139","357114","0.0-6.0-100.0","75715","20222216","rare"
"1486.6000000238419","false","rash","76","76,90","A","","","","test","51","true","","categorize-html","141","360122","0.0-6.0-102.0","75715","20222216","common"
"1039","false","rash,headache","76","76,90","A","B","","","test","52","true","","categorize-html","143","362678","0.0-6.0-104.0","75715","20222216","common"
"1722.8999999761581","false","fever,rash","90","76,90","C","A","","","test","53","true","","categorize-html","145","365912","0.0-6.0-106.0","75715","20222216","rare"
"1775.5","false","headache,fever","90","76,90","B","C","","","test","54","true","","categorize-html","147","369202","0.0-6.0-108.0","75715","20222216","rare"
"1005.5","false","rash,fever","90","76,90","A","C","","","test","55","true","","categorize-html","149","371737","0.0-6.0-110.0","75715","20222216","rare"
"789.8000000119209","false","fever","90","76,90","C","","","","test","56","true","","categorize-html","151","374040","0.0-6.0-112.0","75715","20222216","rare"
"942","false","rash","76","76,90","A","","","","test","57","true","","categorize-html","153","376496","0.0-6.0-114.0","75715","20222216","common"
"955","false","fever,headache","90","76,90","C","B","","","test","58","true","","categorize-html","155","378964","0.0-6.0-116.0","75715","20222216","rare"
"1245.0999999642372","false","headache,rash","76","76,90","B","A","","","test","59","true","","categorize-html","157","381734","0.0-6.0-118.0","75715","20222216","common"
"892.6000000238419","false","headache","76","76,90","B","","","","test","60","true","","categorize-html","159","384148","0.0-6.0-120.0","75715","20222216","common"
"1351.2000000476837","false","headache,rash","76","76,90","B","A","","","test","61","true","","categorize-html","161","387028","0.0-6.0-122.0","75715","20222216","common"
"1832.300000011921","false","rash","90","76,90","A","","","","test","62","true","","categorize-html","163","390373","0.0-6.0-124.0","75715","20222216","rare"
"1268.2000000476837","false","headache","76","76,90","B","","","","test","63","true","","categorize-html","165","393161","0.0-6.0-126.0","75715","20222216","common"
"1504.9000000357628","false","fever,rash","90","76,90","C","A","","","test","64","true","","categorize-html","167","396181","0.0-6.0-128.0","75715","20222216","rare"
"1842.300000011921","false","rash","76","76,90","A","","","","test","65","true","","categorize-html","169","399553","0.0-6.0-130.0","75715","20222216","common"
"1077.3999999761581","false","fever","90","76,90","C","","","","test","66","true","","categorize-html","171","402145","0.0-6.0-132.0","75715","20222216","rare"
"1500.8999999761581","false","rash,headache","76","76,90","A","B","","","test","67","true","","categorize-html","173","405169","0.0-6.0-134.0","75715","20222216","common"
"2652.100000023842","false","fever","90","76,90","C","","","","test","68","true","","categorize-html","175","409340","0.0-6.0-136.0","75715","20222216","rare"
"1246.800000011921","false","headache","76","76,90","B","","","","test","69","true","","categorize-html","177","412115","0.0-6.0-138.0","75715","20222216","common"
"1132.5","false","rash,fever","90","76,90","A","C","","","test","70","true","","categorize-html","179","414765","0.0-6.0-140.0","75715","20222216","rare"
"1672.7000000476837","false","headache,fever","90","76,90","B","C","","","test","71","true","","categorize-html","181","417958","0.0-6.0-142.0","75715","20222216","rare"
"2616.5","false","fever,headache","76","76,90","C","B","","","test","72","true","","categorize-html","183","422086","0.0-6.0-144.0","75715","20222216","common"
"1367.300000011921","false","headache,fever","90","76,90","B","C","","","test","73","true","","categorize-html","186","427256","0.0-6.0-147.0","75715","20222216","rare"
"2234.900000035763","false","fever","90","76,90","C","","","","test","74","true","","categorize-html","188","431006","0.0-6.0-149.0","75715","20222216","rare"
"1531.5","false","rash,headache","76","76,90","A","B","","","test","75","true","","categorize-html","190","434055","0.0-6.0-151.0","75715","20222216","common"
"1916.699999988079","false","rash","76","76,90","A","","","","test","76","true","","categorize-html","192","437498","0.0-6.0-153.0","75715","20222216","common"
"1077.1000000238419","false","fever,rash","90","76,90","C","A","","","test","77","true","","categorize-html","194","440103","0.0-6.0-155.0","75715","20222216","rare"
"1690.5999999642372","false","fever,headache","90","76,90","C","B","","","test","78","true","","categorize-html","196","443312","0.0-6.0-157.0","75715","20222216","rare"
"1275.5","false","headache,rash","76","76,90","B","A","","","test","79","true","","categorize-html","198","446094","0.0-6.0-159.0","75715","20222216","common"
"1654.8999999761581","false","fever","90","76,90","C","","","","test","80","true","","categorize-html","200","449275","0.0-6.0-161.0","75715","20222216","rare"
"1351.199999988079","false","rash,fever","90","76,90","A","C","","","test","81","true","","categorize-html","202","452147","0.0-6.0-163.0","75715","20222216","rare"
"2077.5","false","headache","76","76,90","B","","","","test","82","true","","categorize-html","204","455745","0.0-6.0-165.0","75715","20222216","common"
"2281.800000011921","false","headache","76","76,90","B","","","","test","83","true","","categorize-html","206","459545","0.0-6.0-167.0","75715","20222216","common"
"2222.5","false","rash","90","76,90","A","","","","test","84","true","","categorize-html","208","463291","0.0-6.0-169.0","75715","20222216","rare"
"1918.800000011921","false","fever,headache","90","76,90","C","B","","","test","85","true","","categorize-html","210","466733","0.0-6.0-171.0","75715","20222216","rare"
"1915.7999999523163","false","headache","76","76,90","B","","","","test","86","true","","categorize-html","212","470183","0.0-6.0-173.0","75715","20222216","common"
"1234.3999999761581","false","headache,rash","90","76,90","B","A","","","test","87","true","","categorize-html","214","472945","0.0-6.0-175.0","75715","20222216","rare"
"1290.5","false","rash","90","76,90","A","","","","test","88","true","","categorize-html","216","475745","0.0-6.0-177.0","75715","20222216","rare"
"1356.1000000238419","false","fever","90","76,90","C","","","","test","89","true","","categorize-html","218","478623","0.0-6.0-179.0","75715","20222216","rare"
"791.6000000238419","false","headache","76","76,90","B","","","","test","90","true","","categorize-html","220","480927","0.0-6.0-181.0","75715","20222216","common"
"2070.100000023842","false","rash","76","76,90","A","","","","test","91","true","","categorize-html","222","484507","0.0-6.0-183.0","75715","20222216","common"
"1484.1000000238419","false","headache,fever","76","76,90","B","C","","","test","92","true","","categorize-html","224","487505","0.0-6.0-185.0","75715","20222216","common"
"1747.6000000238419","false","fever","90","76,90","C","","","","test","93","true","","categorize-html","226","490761","0.0-6.0-187.0","75715","20222216","rare"
"1385.800000011921","false","rash,fever","90","76,90","A","C","","","test","94","true","","categorize-html","228","493675","0.0-6.0-189.0","75715","20222216","rare"
"1677.2000000476837","false","rash,headache","76","76,90","A","B","","","test","95","true","","categorize-html","230","496867","0.0-6.0-191.0","75715","20222216","common"
"1035.5","false","fever,rash","90","76,90","C","A","","","test","96","true","","categorize-html","232","499428","0.0-6.0-193.0","75715","20222216","rare"
"1330.4000000357628","false","rash","76","76,90","A","","","","test","97","true","","categorize-html","235","503831","0.0-6.0-196.0","75715","20222216","common"
"1417.1000000238419","false","headache,fever","90","76,90","B","C","","","test","98","true","","categorize-html","237","506774","0.0-6.0-198.0","75715","20222216","rare"
"1105.300000011921","false","rash,fever","90","76,90","A","C","","","test","99","true","","categorize-html","239","509394","0.0-6.0-200.0","75715","20222216","rare"
"1064.199999988079","false","headache","76","76,90","B","","","","test","100","true","","categorize-html","241","511984","0.0-6.0-202.0","75715","20222216","common"
"1084.699999988079","false","fever","90","76,90","C","","","","test","101","true","","categorize-html","243","514598","0.0-6.0-204.0","75715","20222216","rare"
"1813.5","false","fever,headache","90","76,90","C","B","","","test","102","true","","categorize-html","245","517925","0.0-6.0-206.0","75715","20222216","rare"
"2629.199999988079","false","fever,rash","90","76,90","C","A","","","test","103","true","","categorize-html","247","522065","0.0-6.0-208.0","75715","20222216","rare"
"1318","false","rash","76","76,90","A","","","","test","104","true","","categorize-html","249","524895","0.0-6.0-210.0","75715","20222216","common"
"1511.699999988079","false","fever","90","76,90","C","","","","test","105","true","","categorize-html","251","527912","0.0-6.0-212.0","75715","20222216","rare"
"1938","false","rash,headache","76","76,90","A","B","","","test","106","true","","categorize-html","253","531359","0.0-6.0-214.0","75715","20222216","common"
"1256.8999999761581","false","headache","76","76,90","B","","","","test","107","true","","categorize-html","255","534130","0.0-6.0-216.0","75715","20222216","common"
"1180.8999999761581","false","headache,rash","76","76,90","B","A","","","test","108","true","","categorize-html","257","536830","0.0-6.0-218.0","75715","20222216","common"
"1665.300000011921","false","fever,headache","76","76,90","C","B","","","test","109","true","","categorize-html","259","540005","0.0-6.0-220.0","75715","20222216","common"
"1483.199999988079","false","headache,rash","76","76,90","B","A","","","test","110","true","","categorize-html","261","542999","0.0-6.0-222.0","75715","20222216","common"
"1100.199999988079","false","headache","76","76,90","B","","","","test","111","true","","categorize-html","263","545624","0.0-6.0-224.0","75715","20222216","common"
"2232.5","false","rash,headache","76","76,90","A","B","","","test","112","true","","categorize-html","265","549372","0.0-6.0-226.0","75715","20222216","common"
"1477.8999999761581","false","headache,fever","90","76,90","B","C","","","test","113","true","","categorize-html","267","552364","0.0-6.0-228.0","75715","20222216","rare"
"1964.800000011921","false","rash","76","76,90","A","","","","test","114","true","","categorize-html","269","555843","0.0-6.0-230.0","75715","20222216","common"
"1829","false","rash","76","76,90","A","","","","test","115","true","","categorize-html","271","559194","0.0-6.0-232.0","75715","20222216","common"
"1779.5999999642372","false","fever,rash","90","76,90","C","A","","","test","116","true","","categorize-html","273","562495","0.0-6.0-234.0","75715","20222216","rare"
"1179","false","rash,fever","90","76,90","A","C","","","test","117","true","","categorize-html","275","565196","0.0-6.0-236.0","75715","20222216","rare"
"1474.199999988079","false","fever","90","76,90","C","","","","test","118","true","","categorize-html","277","568190","0.0-6.0-238.0","75715","20222216","rare"
"1958","false","fever","90","76,90","C","","","","test","119","true","","categorize-html","279","571665","0.0-6.0-240.0","75715","20222216","rare"
"904.1999999880791","false","headache","90","76,90","B","","","","test","120","true","","categorize-html","281","574086","0.0-6.0-242.0","75715","20222216","rare"
