"rt","correct","stimulus","key_press","keys","symptom1","symptom2","key","category","phase","trial","include","block","trial_type","trial_index","time_elapsed","internal_node_id","ppt","session","abresp"
"null","false","headache,fever","null","90,76","A","B","90","common","training","1","true","1","categorize-html","4","133957","0.0-4.0-0.0","75442","20222310","none"
"4127.5","false","rash,headache","32","90,76","C","A","76","rare","training","2","true","1","categorize-html","6","139103","0.0-4.0-2.0","75442","20222310","none"
"3671.0999999996275","false","headache,rash","32","90,76","A","C","76","rare","training","3","true","1","categorize-html","8","143777","0.0-4.0-4.0","75442","20222310","none"
"3251.4000000003725","false","headache,fever","32","90,76","A","B","90","common","training","4","true","1","categorize-html","10","148032","0.0-4.0-6.0","75442","20222310","none"
"3240.5","false","fever,headache","32","90,76","B","A","90","common","training","5","true","1","categorize-html","12","152277","0.0-4.0-8.0","75442","20222310","none"
"1873.6000000005588","false","fever,headache","32","90,76","B","A","90","common","training","6","true","1","categorize-html","14","155154","0.0-4.0-10.0","75442","20222310","none"
"1459","false","headache,fever","32","90,76","A","B","90","common","training","7","true","1","categorize-html","16","157615","0.0-4.0-12.0","75442","20222310","none"
"781.9000000003725","false","fever,headache","32","90,76","B","A","90","common","training","8","true","1","categorize-html","18","159398","0.0-4.0-14.0","75442","20222310","none"
"3222","false","fever,headache","32","90,76","B","A","90","common","training","9","true","2","categorize-html","21","168615","0.0-4.0-17.0","75442","20222310","none"
"1802.4000000003725","false","headache,rash","32","90,76","A","C","76","rare","training","10","true","2","categorize-html","23","171420","0.0-4.0-19.0","75442","20222310","none"
"1275.3999999994412","false","headache,fever","32","90,76","A","B","90","common","training","11","true","2","categorize-html","25","173701","0.0-4.0-21.0","75442","20222310","none"
"653.2999999998137","false","fever,headache","32","90,76","B","A","90","common","training","12","true","2","categorize-html","27","175357","0.0-4.0-23.0","75442","20222310","none"
"684.7000000001863","false","fever,headache","32","90,76","B","A","90","common","training","13","true","2","categorize-html","29","177044","0.0-4.0-25.0","75442","20222310","none"
"1114.7000000001863","false","headache,fever","32","90,76","A","B","90","common","training","14","true","2","categorize-html","31","179161","0.0-4.0-27.0","75442","20222310","none"
"629.5","false","headache,fever","32","90,76","A","B","90","common","training","15","true","2","categorize-html","33","180794","0.0-4.0-29.0","75442","20222310","none"
"665.0999999996275","false","rash,headache","32","90,76","C","A","76","rare","training","16","true","2","categorize-html","35","182462","0.0-4.0-31.0","75442","20222310","none"
"4295.300000000745","false","rash,headache","76","90,76","C","A","","","test","1","true","","categorize-html","39","214745","0.0-6.0-0.0","75442","20222310","rare"
"4376.799999999814","false","fever","90","90,76","B","","","","test","2","true","","categorize-html","41","220639","0.0-6.0-2.0","75442","20222310","common"
"4491","false","headache","90","90,76","A","","","","test","3","true","","categorize-html","43","226633","0.0-6.0-4.0","75442","20222310","common"
"1260.7999999998137","false","fever","90","90,76","B","","","","test","4","true","","categorize-html","45","229398","0.0-6.0-6.0","75442","20222310","common"
"2752.2000000001863","false","fever,rash","76","90,76","B","C","","","test","5","true","","categorize-html","47","233654","0.0-6.0-8.0","75442","20222310","rare"
"1583.2999999998137","false","fever,headache","90","90,76","B","A","","","test","6","true","","categorize-html","49","236741","0.0-6.0-10.0","75442","20222310","common"
"1864.9000000003725","false","headache,fever","90","90,76","A","B","","","test","7","true","","categorize-html","51","240110","0.0-6.0-12.0","75442","20222310","common"
"2474.5","false","headache","76","90,76","A","","","","test","8","true","","categorize-html","53","244087","0.0-6.0-14.0","75442","20222310","rare"
"1185.5","false","headache,rash","76","90,76","A","C","","","test","9","true","","categorize-html","55","246777","0.0-6.0-16.0","75442","20222310","rare"
"1199.7999999998137","false","rash","76","90,76","C","","","","test","10","true","","categorize-html","57","249490","0.0-6.0-18.0","75442","20222310","rare"
"1901.2000000001863","false","rash,fever","76","90,76","C","B","","","test","11","true","","categorize-html","59","252896","0.0-6.0-20.0","75442","20222310","rare"
"735.7999999998137","false","rash","76","90,76","C","","","","test","12","true","","categorize-html","61","255135","0.0-6.0-22.0","75442","20222310","rare"
"991.7999999998137","false","rash,headache","76","90,76","C","A","","","test","13","true","","categorize-html","63","257629","0.0-6.0-24.0","75442","20222310","rare"
"1285.2000000001863","false","headache","90","90,76","A","","","","test","14","true","","categorize-html","65","260418","0.0-6.0-26.0","75442","20222310","common"
"1467.300000000745","false","headache","90","90,76","A","","","","test","15","true","","categorize-html","67","263389","0.0-6.0-28.0","75442","20222310","common"
"1205.2999999998137","false","fever","90","90,76","B","","","","test","16","true","","categorize-html","69","266097","0.0-6.0-30.0","75442","20222310","common"
"637.3999999994412","false","fever","90","90,76","B","","","","test","17","true","","categorize-html","71","268238","0.0-6.0-32.0","75442","20222310","common"
"1322.8999999994412","false","fever,headache","90","90,76","B","A","","","test","18","true","","categorize-html","73","271066","0.0-6.0-34.0","75442","20222310","common"
"1891.5","false","fever,rash","90","90,76","B","C","","","test","19","true","","categorize-html","75","274460","0.0-6.0-36.0","75442","20222310","common"
"1861.5","false","headache,rash","76","90,76","A","C","","","test","20","true","","categorize-html","77","277824","0.0-6.0-38.0","75442","20222310","rare"
"2000.8999999994412","false","rash,fever","76","90,76","C","B","","","test","21","true","","categorize-html","79","281327","0.0-6.0-40.0","75442","20222310","rare"
"793.4000000003725","false","rash","76","90,76","C","","","","test","22","true","","categorize-html","81","283624","0.0-6.0-42.0","75442","20222310","rare"
"875.7000000001863","false","rash","76","90,76","C","","","","test","23","true","","categorize-html","83","286004","0.0-6.0-44.0","75442","20222310","rare"
"1046.8999999994412","false","headache,fever","90","90,76","A","B","","","test","24","true","","categorize-html","85","288554","0.0-6.0-46.0","75442","20222310","common"
"1975.4000000003725","false","headache,fever","90","90,76","A","B","","","test","25","true","","categorize-html","88","294114","0.0-6.0-49.0","75442","20222310","common"
"858.3999999994412","false","headache,rash","76","90,76","A","C","","","test","26","true","","categorize-html","90","296476","0.0-6.0-51.0","75442","20222310","rare"
"1694.7000000001863","false","rash,fever","76","90,76","C","B","","","test","27","true","","categorize-html","92","299674","0.0-6.0-53.0","75442","20222310","rare"
"941.2000000001863","false","rash","76","90,76","C","","","","test","28","true","","categorize-html","94","302118","0.0-6.0-55.0","75442","20222310","rare"
"656.6999999992549","false","headache","90","90,76","A","","","","test","29","true","","categorize-html","96","304278","0.0-6.0-57.0","75442","20222310","common"
"1005.3000000007451","false","fever","90","90,76","B","","","","test","30","true","","categorize-html","98","306787","0.0-6.0-59.0","75442","20222310","common"
"2209.2000000001863","false","fever,rash","90","90,76","B","C","","","test","31","true","","categorize-html","100","310499","0.0-6.0-61.0","75442","20222310","common"
"797.7000000001863","false","fever","90","90,76","B","","","","test","32","true","","categorize-html","102","312801","0.0-6.0-63.0","75442","20222310","common"
"1001.7999999998137","false","headache","90","90,76","A","","","","test","33","true","","categorize-html","104","315307","0.0-6.0-65.0","75442","20222310","common"
"722.4000000003725","false","rash","76","90,76","C","","","","test","34","true","","categorize-html","106","317534","0.0-6.0-67.0","75442","20222310","rare"
"1684.7999999998137","false","fever,headache","90","90,76","B","A","","","test","35","true","","categorize-html","108","320722","0.0-6.0-69.0","75442","20222310","common"
"877.2999999998137","false","rash,headache","76","90,76","C","A","","","test","36","true","","categorize-html","110","323101","0.0-6.0-71.0","75442","20222310","rare"
"1394.2000000001863","false","fever,headache","90","90,76","B","A","","","test","37","true","","categorize-html","112","326000","0.0-6.0-73.0","75442","20222310","common"
"980.1000000005588","false","headache,rash","76","90,76","A","C","","","test","38","true","","categorize-html","114","328483","0.0-6.0-75.0","75442","20222310","rare"
"1314","false","fever,rash","90","90,76","B","C","","","test","39","true","","categorize-html","116","331300","0.0-6.0-77.0","75442","20222310","common"
"735.4000000003725","false","rash","76","90,76","C","","","","test","40","true","","categorize-html","118","333540","0.0-6.0-79.0","75442","20222310","rare"
"713.2999999998137","false","rash,fever","76","90,76","C","B","","","test","41","true","","categorize-html","120","335756","0.0-6.0-81.0","75442","20222310","rare"
"1043.5","false","headache","90","90,76","A","","","","test","42","true","","categorize-html","122","338304","0.0-6.0-83.0","75442","20222310","common"
"1267.5999999996275","false","fever","90","90,76","B","","","","test","43","true","","categorize-html","124","341075","0.0-6.0-85.0","75442","20222310","common"
"1293.199999999255","false","headache","90","90,76","A","","","","test","44","true","","categorize-html","126","343872","0.0-6.0-87.0","75442","20222310","common"
"837.2999999998137","false","fever","90","90,76","B","","","","test","45","true","","categorize-html","128","346213","0.0-6.0-89.0","75442","20222310","common"
"1958.1000000005588","false","headache,fever","90","90,76","A","B","","","test","46","true","","categorize-html","130","349675","0.0-6.0-91.0","75442","20222310","common"
"738.7999999998137","false","rash","76","90,76","C","","","","test","47","true","","categorize-html","132","351917","0.0-6.0-93.0","75442","20222310","rare"
"1560.699999999255","false","rash,headache","76","90,76","C","A","","","test","48","true","","categorize-html","134","354980","0.0-6.0-95.0","75442","20222310","rare"
"2070.7999999998137","false","fever,headache","90","90,76","B","A","","","test","49","true","","categorize-html","137","490782","0.0-6.0-98.0","75442","20222310","common"
"882.3000000007451","false","headache","90","90,76","A","","","","test","50","true","","categorize-html","139","493168","0.0-6.0-100.0","75442","20222310","common"
"695","false","rash","76","90,76","C","","","","test","51","true","","categorize-html","141","495365","0.0-6.0-102.0","75442","20222310","rare"
"1418.699999999255","false","headache,fever","90","90,76","A","B","","","test","52","true","","categorize-html","143","498289","0.0-6.0-104.0","75442","20222310","common"
"696.5999999996275","false","rash,headache","76","90,76","C","A","","","test","53","true","","categorize-html","145","500488","0.0-6.0-106.0","75442","20222310","rare"
"1022.9000000003725","false","rash","76","90,76","C","","","","test","54","true","","categorize-html","147","503015","0.0-6.0-108.0","75442","20222310","rare"
"727.4000000003725","false","headache","90","90,76","A","","","","test","55","true","","categorize-html","149","505246","0.0-6.0-110.0","75442","20222310","common"
"938.0999999996275","false","fever","90","90,76","B","","","","test","56","true","","categorize-html","151","507689","0.0-6.0-112.0","75442","20222310","common"
"689.2999999998137","false","fever","90","90,76","B","","","","test","57","true","","categorize-html","153","509881","0.0-6.0-114.0","75442","20222310","common"
"852.2000000001863","false","headache,rash","76","90,76","A","C","","","test","58","true","","categorize-html","155","512238","0.0-6.0-116.0","75442","20222310","rare"
"1385.8999999994412","false","rash,fever","76","90,76","C","B","","","test","59","true","","categorize-html","157","515127","0.0-6.0-118.0","75442","20222310","rare"
"1437.7000000001863","false","fever,rash","90","90,76","B","C","","","test","60","true","","categorize-html","159","518068","0.0-6.0-120.0","75442","20222310","common"
"877.5999999996275","false","headache","90","90,76","A","","","","test","61","true","","categorize-html","161","520448","0.0-6.0-122.0","75442","20222310","common"
"1690.199999999255","false","rash,headache","76","90,76","C","A","","","test","62","true","","categorize-html","163","523641","0.0-6.0-124.0","75442","20222310","rare"
"1711.2999999998137","false","rash,fever","76","90,76","C","B","","","test","63","true","","categorize-html","165","526856","0.0-6.0-126.0","75442","20222310","rare"
"2052.100000000559","false","fever,headache","90","90,76","B","A","","","test","64","true","","categorize-html","167","530412","0.0-6.0-128.0","75442","20222310","common"
"699.7000000001863","false","rash","76","90,76","C","","","","test","65","true","","categorize-html","169","532615","0.0-6.0-130.0","75442","20222310","rare"
"611.3999999994412","false","rash","76","90,76","C","","","","test","66","true","","categorize-html","171","534731","0.0-6.0-132.0","75442","20222310","rare"
"571.5","false","fever","90","90,76","B","","","","test","67","true","","categorize-html","173","536806","0.0-6.0-134.0","75442","20222310","common"
"789.7000000001863","false","fever,rash","76","90,76","B","C","","","test","68","true","","categorize-html","175","539098","0.0-6.0-136.0","75442","20222310","rare"
"780.0999999996275","false","headache","90","90,76","A","","","","test","69","true","","categorize-html","177","541381","0.0-6.0-138.0","75442","20222310","common"
"810.7999999998137","false","headache,rash","76","90,76","A","C","","","test","70","true","","categorize-html","179","543695","0.0-6.0-140.0","75442","20222310","rare"
"1044.4000000003725","false","headache,fever","90","90,76","A","B","","","test","71","true","","categorize-html","181","546244","0.0-6.0-142.0","75442","20222310","common"
"761.2999999998137","false","fever","90","90,76","B","","","","test","72","true","","categorize-html","183","548508","0.0-6.0-144.0","75442","20222310","common"
"3222.4000000003725","false","headache,rash","76","90,76","A","C","","","test","73","true","","categorize-html","186","555286","0.0-6.0-147.0","75442","20222310","rare"
"917","false","rash,headache","76","90,76","C","A","","","test","74","true","","categorize-html","188","557722","0.0-6.0-149.0","75442","20222310","rare"
"553.5","false","rash","76","90,76","C","","","","test","75","true","","categorize-html","190","559779","0.0-6.0-151.0","75442","20222310","rare"
"879.0999999996275","false","fever","90","90,76","B","","","","test","76","true","","categorize-html","192","562162","0.0-6.0-153.0","75442","20222310","common"
"1322.4000000003725","false","fever,rash","90","90,76","B","C","","","test","77","true","","categorize-html","194","564997","0.0-6.0-155.0","75442","20222310","common"
"976.3999999994412","false","rash,fever","76","90,76","C","B","","","test","78","true","","categorize-html","196","567476","0.0-6.0-157.0","75442","20222310","rare"
"1077","false","headache,fever","90","90,76","A","B","","","test","79","true","","categorize-html","198","570057","0.0-6.0-159.0","75442","20222310","common"
"878.5999999996275","false","fever,headache","90","90,76","B","A","","","test","80","true","","categorize-html","200","572438","0.0-6.0-161.0","75442","20222310","common"
"1084.1000000005588","false","headache","90","90,76","A","","","","test","81","true","","categorize-html","202","575026","0.0-6.0-163.0","75442","20222310","common"
"1618.6000000005588","false","fever","90","90,76","B","","","","test","82","true","","categorize-html","204","578148","0.0-6.0-165.0","75442","20222310","common"
"1338.9000000003725","false","headache","90","90,76","A","","","","test","83","true","","categorize-html","206","580991","0.0-6.0-167.0","75442","20222310","common"
"553.6999999992549","false","rash","76","90,76","C","","","","test","84","true","","categorize-html","208","583048","0.0-6.0-169.0","75442","20222310","rare"
"496.5","false","fever","90","90,76","B","","","","test","85","true","","categorize-html","210","585048","0.0-6.0-171.0","75442","20222310","common"
"1201.0999999996275","false","rash","76","90,76","C","","","","test","86","true","","categorize-html","212","587752","0.0-6.0-173.0","75442","20222310","rare"
"802.2000000001863","false","rash","76","90,76","C","","","","test","87","true","","categorize-html","214","590058","0.0-6.0-175.0","75442","20222310","rare"
"726.1000000005588","false","headache","90","90,76","A","","","","test","88","true","","categorize-html","216","592287","0.0-6.0-177.0","75442","20222310","common"
"750.5","false","fever","90","90,76","B","","","","test","89","true","","categorize-html","218","594543","0.0-6.0-179.0","75442","20222310","common"
"713.8999999994412","false","rash,headache","76","90,76","C","A","","","test","90","true","","categorize-html","220","596760","0.0-6.0-181.0","75442","20222310","rare"
"1226.2000000001863","false","headache,rash","76","90,76","A","C","","","test","91","true","","categorize-html","222","599491","0.0-6.0-183.0","75442","20222310","rare"
"1976.9000000003725","false","fever,headache","90","90,76","B","A","","","test","92","true","","categorize-html","224","602971","0.0-6.0-185.0","75442","20222310","common"
"1577.7999999998137","false","headache","76","90,76","A","","","","test","93","true","","categorize-html","226","606053","0.0-6.0-187.0","75442","20222310","rare"
"894.3999999994412","false","rash,fever","76","90,76","C","B","","","test","94","true","","categorize-html","228","608450","0.0-6.0-189.0","75442","20222310","rare"
"928.3999999994412","false","fever,rash","90","90,76","B","C","","","test","95","true","","categorize-html","230","610881","0.0-6.0-191.0","75442","20222310","common"
"1289.7000000001863","false","headache,fever","90","90,76","A","B","","","test","96","true","","categorize-html","232","613674","0.0-6.0-193.0","75442","20222310","common"
"1810.300000000745","false","fever","90","90,76","B","","","","test","97","true","","categorize-html","235","667039","0.0-6.0-196.0","75442","20222310","common"
"851.8000000007451","false","headache","90","90,76","A","","","","test","98","true","","categorize-html","237","669395","0.0-6.0-198.0","75442","20222310","common"
"532.7000000011176","false","rash,fever","76","90,76","C","B","","","test","99","true","","categorize-html","239","671432","0.0-6.0-200.0","75442","20222310","rare"
"776.6999999992549","false","rash","76","90,76","C","","","","test","100","true","","categorize-html","241","673712","0.0-6.0-202.0","75442","20222310","rare"
"730.9000000003725","false","fever,headache","90","90,76","B","A","","","test","101","true","","categorize-html","243","675960","0.0-6.0-204.0","75442","20222310","common"
"818.2000000011176","false","headache,rash","76","90,76","A","C","","","test","102","true","","categorize-html","245","678282","0.0-6.0-206.0","75442","20222310","rare"
"1405.6000000014901","false","fever,rash","90","90,76","B","C","","","test","103","true","","categorize-html","247","681192","0.0-6.0-208.0","75442","20222310","common"
"614.3000000007451","false","rash","76","90,76","C","","","","test","104","true","","categorize-html","249","683309","0.0-6.0-210.0","75442","20222310","rare"
"673.8000000007451","false","headache","90","90,76","A","","","","test","105","true","","categorize-html","251","685486","0.0-6.0-212.0","75442","20222310","common"
"626.5999999996275","false","fever","90","90,76","B","","","","test","106","true","","categorize-html","253","687615","0.0-6.0-214.0","75442","20222310","common"
"823.1999999992549","false","rash,headache","76","90,76","C","A","","","test","107","true","","categorize-html","255","689942","0.0-6.0-216.0","75442","20222310","rare"
"838","false","headache,fever","90","90,76","A","B","","","test","108","true","","categorize-html","257","692285","0.0-6.0-218.0","75442","20222310","common"
"1445.0999999996275","false","rash,fever","76","90,76","C","B","","","test","109","true","","categorize-html","259","695233","0.0-6.0-220.0","75442","20222310","rare"
"624","false","fever","90","90,76","B","","","","test","110","true","","categorize-html","261","697361","0.0-6.0-222.0","75442","20222310","common"
"562.5","false","rash","76","90,76","C","","","","test","111","true","","categorize-html","263","699428","0.0-6.0-224.0","75442","20222310","rare"
"801.7999999988824","false","headache,rash","76","90,76","A","C","","","test","112","true","","categorize-html","265","701735","0.0-6.0-226.0","75442","20222310","rare"
"488.7999999988824","false","fever","90","90,76","B","","","","test","113","true","","categorize-html","267","703728","0.0-6.0-228.0","75442","20222310","common"
"1318.6000000014901","false","fever,headache","90","90,76","B","A","","","test","114","true","","categorize-html","269","706550","0.0-6.0-230.0","75442","20222310","common"
"621.7999999988824","false","rash","76","90,76","C","","","","test","115","true","","categorize-html","271","708675","0.0-6.0-232.0","75442","20222310","rare"
"1188.5999999996275","false","headache","90","90,76","A","","","","test","116","true","","categorize-html","273","711367","0.0-6.0-234.0","75442","20222310","common"
"665.4000000003725","false","headache","90","90,76","A","","","","test","117","true","","categorize-html","275","713536","0.0-6.0-236.0","75442","20222310","common"
"813.5999999996275","false","rash,headache","76","90,76","C","A","","","test","118","true","","categorize-html","277","715853","0.0-6.0-238.0","75442","20222310","rare"
"1133.5999999996275","false","fever,rash","90","90,76","B","C","","","test","119","true","","categorize-html","279","718492","0.0-6.0-240.0","75442","20222310","common"
"998.2000000011176","false","headache,fever","90","90,76","A","B","","","test","120","true","","categorize-html","281","720995","0.0-6.0-242.0","75442","20222310","common"
