"rt","correct","stimulus","key_press","keys","symptom1","symptom2","key","category","phase","trial","include","block","trial_type","trial_index","time_elapsed","internal_node_id","ppt","session","abresp"
"null","false","rash,fever","null","76,90","A","C","90","rare","training","1","true","1","categorize-html","4","85255","0.0-4.0-0.0","72928","202221319","none"
"null","false","fever,rash","null","76,90","C","A","90","rare","training","2","true","1","categorize-html","6","91284","0.0-4.0-2.0","72928","202221319","none"
"3179.800000000745","false","headache,rash","32","76,90","B","A","76","common","training","3","true","1","categorize-html","8","95484","0.0-4.0-4.0","72928","202221319","none"
"3053.900000002235","false","headache,rash","32","76,90","B","A","76","common","training","4","true","1","categorize-html","10","99559","0.0-4.0-6.0","72928","202221319","none"
"3276.5","false","headache,rash","32","76,90","B","A","76","common","training","5","true","1","categorize-html","12","103848","0.0-4.0-8.0","72928","202221319","none"
"2910.5","false","rash,headache","32","76,90","A","B","76","common","training","6","true","1","categorize-html","14","107781","0.0-4.0-10.0","72928","202221319","none"
"2373.10000000149","false","rash,headache","32","76,90","A","B","76","common","training","7","true","1","categorize-html","16","111162","0.0-4.0-12.0","72928","202221319","none"
"2648.7000000029802","false","rash,headache","32","76,90","A","B","76","common","training","8","true","1","categorize-html","18","114833","0.0-4.0-14.0","72928","202221319","none"
"2821.89999999851","false","rash,fever","32","76,90","A","C","90","rare","training","9","true","2","categorize-html","21","125746","0.0-4.0-17.0","72928","202221319","none"
"2267.10000000149","false","rash,headache","32","76,90","A","B","76","common","training","10","true","2","categorize-html","23","129032","0.0-4.0-19.0","72928","202221319","none"
"3425.199999999255","false","headache,rash","32","76,90","B","A","76","common","training","11","true","2","categorize-html","25","133463","0.0-4.0-21.0","72928","202221319","none"
"2795.5","false","rash,headache","32","76,90","A","B","76","common","training","12","true","2","categorize-html","27","137265","0.0-4.0-23.0","72928","202221319","none"
"2963.199999999255","false","rash,headache","32","76,90","A","B","76","common","training","13","true","2","categorize-html","29","141248","0.0-4.0-25.0","72928","202221319","none"
"2587.099999997765","false","headache,rash","32","76,90","B","A","76","common","training","14","true","2","categorize-html","31","144842","0.0-4.0-27.0","72928","202221319","none"
"2768.89999999851","false","fever,rash","32","76,90","C","A","90","rare","training","15","true","2","categorize-html","33","148615","0.0-4.0-29.0","72928","202221319","none"
"1924","false","headache,rash","32","76,90","B","A","76","common","training","16","true","2","categorize-html","35","151556","0.0-4.0-31.0","72928","202221319","none"
"3391.599999997765","false","headache,rash","90","76,90","B","A","","","test","1","true","","categorize-html","39","212698","0.0-6.0-0.0","72928","202221319","rare"
"1897.199999999255","false","rash,fever","76","76,90","A","C","","","test","2","true","","categorize-html","41","216108","0.0-6.0-2.0","72928","202221319","common"
"1124.9000000022352","false","rash","90","76,90","A","","","","test","3","true","","categorize-html","43","218746","0.0-6.0-4.0","72928","202221319","rare"
"253.60000000149012","false","headache,fever","76","76,90","B","C","","","test","4","true","","categorize-html","45","220509","0.0-6.0-6.0","72928","202221319","common"
"1614.6000000014901","false","headache","90","76,90","B","","","","test","5","true","","categorize-html","47","223632","0.0-6.0-8.0","72928","202221319","rare"
"990.7000000029802","false","fever","76","76,90","C","","","","test","6","true","","categorize-html","49","226144","0.0-6.0-10.0","72928","202221319","common"
"516","false","fever,headache","90","76,90","C","B","","","test","7","true","","categorize-html","51","228173","0.0-6.0-12.0","72928","202221319","rare"
"1116.5","false","headache","90","76,90","B","","","","test","8","true","","categorize-html","53","230801","0.0-6.0-14.0","72928","202221319","rare"
"627.8000000007451","false","fever","76","76,90","C","","","","test","9","true","","categorize-html","55","232947","0.0-6.0-16.0","72928","202221319","common"
"239.5","false","fever,rash","90","76,90","C","A","","","test","10","true","","categorize-html","57","234706","0.0-6.0-18.0","72928","202221319","rare"
"271.80000000074506","false","rash,headache","90","76,90","A","B","","","test","11","true","","categorize-html","59","236492","0.0-6.0-20.0","72928","202221319","rare"
"620.5999999977648","false","rash","90","76,90","A","","","","test","12","true","","categorize-html","61","238631","0.0-6.0-22.0","72928","202221319","rare"
"704.8000000007451","false","rash","90","76,90","A","","","","test","13","true","","categorize-html","63","240850","0.0-6.0-24.0","72928","202221319","rare"
"534.9000000022352","false","rash,fever","76","76,90","A","C","","","test","14","true","","categorize-html","65","242894","0.0-6.0-26.0","72928","202221319","common"
"329.1000000014901","false","fever,headache","76","76,90","C","B","","","test","15","true","","categorize-html","67","244727","0.0-6.0-28.0","72928","202221319","common"
"242.30000000074506","false","fever,rash","90","76,90","C","A","","","test","16","true","","categorize-html","69","246486","0.0-6.0-30.0","72928","202221319","rare"
"251.39999999850988","false","fever","76","76,90","C","","","","test","17","true","","categorize-html","71","248245","0.0-6.0-32.0","72928","202221319","common"
"234","false","rash,headache","90","76,90","A","B","","","test","18","true","","categorize-html","73","250009","0.0-6.0-34.0","72928","202221319","rare"
"496.5999999977648","false","rash","76","76,90","A","","","","test","19","true","","categorize-html","75","252036","0.0-6.0-36.0","72928","202221319","common"
"229.29999999701977","false","headache,rash","90","76,90","B","A","","","test","20","true","","categorize-html","77","253796","0.0-6.0-38.0","72928","202221319","rare"
"454.69999999925494","false","headache,fever","76","76,90","B","C","","","test","21","true","","categorize-html","79","255756","0.0-6.0-40.0","72928","202221319","common"
"382.80000000074506","false","fever","90","76,90","C","","","","test","22","true","","categorize-html","81","257651","0.0-6.0-42.0","72928","202221319","rare"
"272.6000000014901","false","headache","76","76,90","B","","","","test","23","true","","categorize-html","83","259445","0.0-6.0-44.0","72928","202221319","common"
"276.5","false","headache","90","76,90","B","","","","test","24","true","","categorize-html","85","261249","0.0-6.0-46.0","72928","202221319","rare"
"1745.5","false","fever,rash","76","76,90","C","A","","","test","25","true","","categorize-html","88","268893","0.0-6.0-49.0","72928","202221319","common"
"687.1999999992549","false","fever","76","76,90","C","","","","test","26","true","","categorize-html","90","271087","0.0-6.0-51.0","72928","202221319","common"
"659.6000000014901","false","fever,headache","90","76,90","C","B","","","test","27","true","","categorize-html","92","273252","0.0-6.0-53.0","72928","202221319","rare"
"598","false","headache","76","76,90","B","","","","test","28","true","","categorize-html","94","275368","0.0-6.0-55.0","72928","202221319","common"
"517.1000000014901","false","headache,fever","76","76,90","B","C","","","test","29","true","","categorize-html","96","277402","0.0-6.0-57.0","72928","202221319","common"
"216.59999999776483","false","rash","90","76,90","A","","","","test","30","true","","categorize-html","98","279149","0.0-6.0-59.0","72928","202221319","rare"
"286.29999999701977","false","headache","76","76,90","B","","","","test","31","true","","categorize-html","100","280953","0.0-6.0-61.0","72928","202221319","common"
"373.5999999977648","false","rash,headache","76","76,90","A","B","","","test","32","true","","categorize-html","102","282849","0.0-6.0-63.0","72928","202221319","common"
"282","false","rash,fever","90","76,90","A","C","","","test","33","true","","categorize-html","104","284659","0.0-6.0-65.0","72928","202221319","rare"
"452.3999999985099","false","rash","76","76,90","A","","","","test","34","true","","categorize-html","106","286635","0.0-6.0-67.0","72928","202221319","common"
"480.20000000298023","false","headache,rash","90","76,90","B","A","","","test","35","true","","categorize-html","108","288624","0.0-6.0-69.0","72928","202221319","rare"
"624.6999999992549","false","fever","76","76,90","C","","","","test","36","true","","categorize-html","110","290759","0.0-6.0-71.0","72928","202221319","common"
"668","false","rash,fever","76","76,90","A","C","","","test","37","true","","categorize-html","112","292940","0.0-6.0-73.0","72928","202221319","common"
"660.2999999970198","false","rash","76","76,90","A","","","","test","38","true","","categorize-html","114","295112","0.0-6.0-75.0","72928","202221319","common"
"705.3000000007451","false","fever,headache","90","76,90","C","B","","","test","39","true","","categorize-html","116","297345","0.0-6.0-77.0","72928","202221319","rare"
"694.5","false","headache,fever","76","76,90","B","C","","","test","40","true","","categorize-html","118","299551","0.0-6.0-79.0","72928","202221319","common"
"515.5","false","headache","76","76,90","B","","","","test","41","true","","categorize-html","120","301578","0.0-6.0-81.0","72928","202221319","common"
"252.39999999850988","false","rash","90","76,90","A","","","","test","42","true","","categorize-html","122","303345","0.0-6.0-83.0","72928","202221319","rare"
"537","false","fever","90","76,90","C","","","","test","43","true","","categorize-html","124","305409","0.0-6.0-85.0","72928","202221319","rare"
"267.5","false","headache","90","76,90","B","","","","test","44","true","","categorize-html","126","307199","0.0-6.0-87.0","72928","202221319","rare"
"300.6000000014901","false","fever,rash","76","76,90","C","A","","","test","45","true","","categorize-html","128","309018","0.0-6.0-89.0","72928","202221319","common"
"775.5","false","fever","90","76,90","C","","","","test","46","true","","categorize-html","130","311310","0.0-6.0-91.0","72928","202221319","rare"
"428.3999999985099","false","rash,headache","76","76,90","A","B","","","test","47","true","","categorize-html","132","313253","0.0-6.0-93.0","72928","202221319","common"
"493.80000000074506","false","headache,rash","90","76,90","B","A","","","test","48","true","","categorize-html","134","315269","0.0-6.0-95.0","72928","202221319","rare"
"1920.7000000029802","false","fever","90","76,90","C","","","","test","49","true","","categorize-html","137","321012","0.0-6.0-98.0","72928","202221319","rare"
"287.8999999985099","false","rash","76","76,90","A","","","","test","50","true","","categorize-html","139","322818","0.0-6.0-100.0","72928","202221319","common"
"486.80000000074506","false","headache,fever","90","76,90","B","C","","","test","51","true","","categorize-html","141","324824","0.0-6.0-102.0","72928","202221319","rare"
"345.30000000074506","false","headache,rash","90","76,90","B","A","","","test","52","true","","categorize-html","143","326687","0.0-6.0-104.0","72928","202221319","rare"
"253.80000000074506","false","fever,headache","90","76,90","C","B","","","test","53","true","","categorize-html","145","328461","0.0-6.0-106.0","72928","202221319","rare"
"261.5999999977648","false","rash,headache","76","76,90","A","B","","","test","54","true","","categorize-html","147","330233","0.0-6.0-108.0","72928","202221319","common"
"230","false","headache","76","76,90","B","","","","test","55","true","","categorize-html","149","331978","0.0-6.0-110.0","72928","202221319","common"
"590","false","headache","76","76,90","B","","","","test","56","true","","categorize-html","151","334085","0.0-6.0-112.0","72928","202221319","common"
"369.19999999925494","false","fever,rash","90","76,90","C","A","","","test","57","true","","categorize-html","153","335976","0.0-6.0-114.0","72928","202221319","rare"
"205.89999999850988","false","rash","76","76,90","A","","","","test","58","true","","categorize-html","155","337712","0.0-6.0-116.0","72928","202221319","common"
"264.19999999925494","false","fever","90","76,90","C","","","","test","59","true","","categorize-html","157","339498","0.0-6.0-118.0","72928","202221319","rare"
"389.19999999925494","false","rash,fever","76","76,90","A","C","","","test","60","true","","categorize-html","159","341407","0.0-6.0-120.0","72928","202221319","common"
"109.79999999701977","false","headache,rash","76","76,90","B","A","","","test","61","true","","categorize-html","161","343036","0.0-6.0-122.0","72928","202221319","common"
"449.1000000014901","false","headache","76","76,90","B","","","","test","62","true","","categorize-html","163","344997","0.0-6.0-124.0","72928","202221319","common"
"86","false","rash,fever","76","76,90","A","C","","","test","63","true","","categorize-html","165","346607","0.0-6.0-126.0","72928","202221319","common"
"351.29999999701977","false","fever","76","76,90","C","","","","test","64","true","","categorize-html","167","348489","0.0-6.0-128.0","72928","202221319","common"
"58.099999997764826","false","fever,headache","90","76,90","C","B","","","test","65","true","","categorize-html","169","350057","0.0-6.0-130.0","72928","202221319","rare"
"278.5","false","rash,headache","90","76,90","A","B","","","test","66","true","","categorize-html","171","351854","0.0-6.0-132.0","72928","202221319","rare"
"344.69999999925494","false","rash","76","76,90","A","","","","test","67","true","","categorize-html","173","353714","0.0-6.0-134.0","72928","202221319","common"
"446.19999999925494","false","fever","90","76,90","C","","","","test","68","true","","categorize-html","175","355676","0.0-6.0-136.0","72928","202221319","rare"
"593.3000000007451","false","headache","90","76,90","B","","","","test","69","true","","categorize-html","177","357785","0.0-6.0-138.0","72928","202221319","rare"
"819","false","headache,fever","76","76,90","B","C","","","test","70","true","","categorize-html","179","360121","0.0-6.0-140.0","72928","202221319","common"
"319.8999999985099","false","rash","76","76,90","A","","","","test","71","true","","categorize-html","181","361951","0.0-6.0-142.0","72928","202221319","common"
"493.80000000074506","false","fever,rash","76","76,90","C","A","","","test","72","true","","categorize-html","183","363964","0.0-6.0-144.0","72928","202221319","common"
"853.3000000007451","false","fever","76","76,90","C","","","","test","73","true","","categorize-html","186","368143","0.0-6.0-147.0","72928","202221319","common"
"724.9000000022352","false","fever,headache","76","76,90","C","B","","","test","74","true","","categorize-html","188","370385","0.0-6.0-149.0","72928","202221319","common"
"293.4000000022352","false","headache,rash","90","76,90","B","A","","","test","75","true","","categorize-html","190","372192","0.0-6.0-151.0","72928","202221319","rare"
"317.1000000014901","false","fever","90","76,90","C","","","","test","76","true","","categorize-html","192","374021","0.0-6.0-153.0","72928","202221319","rare"
"770.6000000014901","false","rash,fever","90","76,90","A","C","","","test","77","true","","categorize-html","194","376309","0.0-6.0-155.0","72928","202221319","rare"
"465.19999999925494","false","rash","76","76,90","A","","","","test","78","true","","categorize-html","196","378294","0.0-6.0-157.0","72928","202221319","common"
"642","false","rash,headache","90","76,90","A","B","","","test","79","true","","categorize-html","198","380456","0.0-6.0-159.0","72928","202221319","rare"
"940","false","rash","76","76,90","A","","","","test","80","true","","categorize-html","200","382907","0.0-6.0-161.0","72928","202221319","common"
"725.9000000022352","false","headache","76","76,90","B","","","","test","81","true","","categorize-html","202","385153","0.0-6.0-163.0","72928","202221319","common"
"354.1000000014901","false","headache,fever","90","76,90","B","C","","","test","82","true","","categorize-html","204","387014","0.0-6.0-165.0","72928","202221319","rare"
"273.9000000022352","false","headache","90","76,90","B","","","","test","83","true","","categorize-html","206","388813","0.0-6.0-167.0","72928","202221319","rare"
"408.5999999977648","false","fever,rash","90","76,90","C","A","","","test","84","true","","categorize-html","208","390739","0.0-6.0-169.0","72928","202221319","rare"
"620.9000000022352","false","fever","90","76,90","C","","","","test","85","true","","categorize-html","210","392874","0.0-6.0-171.0","72928","202221319","rare"
"508.1000000014901","false","rash,fever","90","76,90","A","C","","","test","86","true","","categorize-html","212","394895","0.0-6.0-173.0","72928","202221319","rare"
"283.5","false","headache,rash","76","76,90","B","A","","","test","87","true","","categorize-html","214","396684","0.0-6.0-175.0","72928","202221319","common"
"352.0999999977648","false","fever,headache","76","76,90","C","B","","","test","88","true","","categorize-html","216","398552","0.0-6.0-177.0","72928","202221319","common"
"267.5","false","fever,rash","76","76,90","C","A","","","test","89","true","","categorize-html","218","400331","0.0-6.0-179.0","72928","202221319","common"
"446.80000000074506","false","headache","76","76,90","B","","","","test","90","true","","categorize-html","220","402302","0.0-6.0-181.0","72928","202221319","common"
"512.8000000007451","false","headache,fever","76","76,90","B","C","","","test","91","true","","categorize-html","222","404329","0.0-6.0-183.0","72928","202221319","common"
"561.3999999985099","false","rash,headache","76","76,90","A","B","","","test","92","true","","categorize-html","224","406408","0.0-6.0-185.0","72928","202221319","common"
"645.9000000022352","false","headache","76","76,90","B","","","","test","93","true","","categorize-html","226","408564","0.0-6.0-187.0","72928","202221319","common"
"350.30000000074506","false","fever","90","76,90","C","","","","test","94","true","","categorize-html","228","410436","0.0-6.0-189.0","72928","202221319","rare"
"268.8999999985099","false","rash","90","76,90","A","","","","test","95","true","","categorize-html","230","412224","0.0-6.0-191.0","72928","202221319","rare"
"9.5","false","rash","76","76,90","A","","","","test","96","true","","categorize-html","232","413750","0.0-6.0-193.0","72928","202221319","common"
"955.5999999977648","false","rash","76","76,90","A","","","","test","97","true","","categorize-html","235","417831","0.0-6.0-196.0","72928","202221319","common"
"742","false","rash,headache","76","76,90","A","B","","","test","98","true","","categorize-html","237","420103","0.0-6.0-198.0","72928","202221319","common"
"324.0999999977648","false","fever,headache","90","76,90","C","B","","","test","99","true","","categorize-html","239","421945","0.0-6.0-200.0","72928","202221319","rare"
"318.6000000014901","false","headache","90","76,90","B","","","","test","100","true","","categorize-html","241","423785","0.0-6.0-202.0","72928","202221319","rare"
"488.3999999985099","false","headache,fever","90","76,90","B","C","","","test","101","true","","categorize-html","243","425804","0.0-6.0-204.0","72928","202221319","rare"
"295","false","fever,rash","90","76,90","C","A","","","test","102","true","","categorize-html","245","427614","0.0-6.0-206.0","72928","202221319","rare"
"956.7000000029802","false","fever","90","76,90","C","","","","test","103","true","","categorize-html","247","430077","0.0-6.0-208.0","72928","202221319","rare"
"577.0999999977648","false","rash,fever","90","76,90","A","C","","","test","104","true","","categorize-html","249","432171","0.0-6.0-210.0","72928","202221319","rare"
"958.3999999985099","false","headache,rash","90","76,90","B","A","","","test","105","true","","categorize-html","251","434659","0.0-6.0-212.0","72928","202221319","rare"
"648.4000000022352","false","headache","90","76,90","B","","","","test","106","true","","categorize-html","253","436822","0.0-6.0-214.0","72928","202221319","rare"
"2769.599999997765","false","rash","76","76,90","A","","","","test","107","true","","categorize-html","255","441110","0.0-6.0-216.0","72928","202221319","common"
"1086.1000000014901","false","fever","76","76,90","C","","","","test","108","true","","categorize-html","257","443701","0.0-6.0-218.0","72928","202221319","common"
"545.5","false","headache,rash","76","76,90","B","A","","","test","109","true","","categorize-html","259","445768","0.0-6.0-220.0","72928","202221319","common"
"152.59999999776483","false","rash,headache","90","76,90","A","B","","","test","110","true","","categorize-html","261","447429","0.0-6.0-222.0","72928","202221319","rare"
"533.1999999992549","false","fever","90","76,90","C","","","","test","111","true","","categorize-html","263","449467","0.0-6.0-224.0","72928","202221319","rare"
"29.5","false","fever,rash","76","76,90","C","A","","","test","112","true","","categorize-html","265","451005","0.0-6.0-226.0","72928","202221319","common"
"261.5999999977648","false","fever","76","76,90","C","","","","test","113","true","","categorize-html","267","452782","0.0-6.0-228.0","72928","202221319","common"
"189.39999999850988","false","headache","76","76,90","B","","","","test","114","true","","categorize-html","269","454502","0.0-6.0-230.0","72928","202221319","common"
"226.30000000074506","false","rash","76","76,90","A","","","","test","115","true","","categorize-html","271","456246","0.0-6.0-232.0","72928","202221319","common"
"370.5","false","rash","76","76,90","A","","","","test","116","true","","categorize-html","273","458133","0.0-6.0-234.0","72928","202221319","common"
"568.3999999985099","false","fever,headache","76","76,90","C","B","","","test","117","true","","categorize-html","275","460230","0.0-6.0-236.0","72928","202221319","common"
"228.20000000298023","false","headache,fever","76","76,90","B","C","","","test","118","true","","categorize-html","277","461985","0.0-6.0-238.0","72928","202221319","common"
"349.1000000014901","false","headache","76","76,90","B","","","","test","119","true","","categorize-html","279","463851","0.0-6.0-240.0","72928","202221319","common"
"281.5","false","rash,fever","76","76,90","A","C","","","test","120","true","","categorize-html","281","465665","0.0-6.0-242.0","72928","202221319","common"
