"rt","correct","stimulus","key_press","keys","symptom1","symptom2","key","category","phase","trial","include","block","trial_type","trial_index","time_elapsed","internal_node_id","ppt","session","abresp"
"null","false","rash,headache","null","90,76","B","A","90","common","training","1","true","1","categorize-html","4","138136","0.0-4.0-0.0","76168","20222219","none"
"2238.2999999523163","false","headache,rash","32","90,76","A","B","90","common","training","2","true","1","categorize-html","6","141392","0.0-4.0-2.0","76168","20222219","none"
"2406.600000023842","false","headache,rash","32","90,76","A","B","90","common","training","3","true","1","categorize-html","8","144821","0.0-4.0-4.0","76168","20222219","none"
"3126.7999999523163","false","rash,headache","32","90,76","B","A","90","common","training","4","true","1","categorize-html","10","148968","0.0-4.0-6.0","76168","20222219","none"
"2851.4000000953674","false","rash,headache","32","90,76","B","A","90","common","training","5","true","1","categorize-html","12","152841","0.0-4.0-8.0","76168","20222219","none"
"3770.1999999284744","false","fever,headache","32","90,76","C","A","76","rare","training","6","true","1","categorize-html","14","157619","0.0-4.0-10.0","76168","20222219","none"
"3745.5","false","headache,fever","32","90,76","A","C","76","rare","training","7","true","1","categorize-html","16","162392","0.0-4.0-12.0","76168","20222219","none"
"2485.2000000476837","false","headache,rash","32","90,76","A","B","90","common","training","8","true","1","categorize-html","18","165907","0.0-4.0-14.0","76168","20222219","none"
"2405","false","headache,rash","32","90,76","A","B","90","common","training","9","true","2","categorize-html","21","172807","0.0-4.0-17.0","76168","20222219","none"
"1512.3999999761581","false","fever,headache","32","90,76","C","A","76","rare","training","10","true","2","categorize-html","23","175332","0.0-4.0-19.0","76168","20222219","none"
"1570.2000000476837","false","headache,rash","32","90,76","A","B","90","common","training","11","true","2","categorize-html","25","177918","0.0-4.0-21.0","76168","20222219","none"
"1674.5","false","rash,headache","32","90,76","B","A","90","common","training","12","true","2","categorize-html","27","180624","0.0-4.0-23.0","76168","20222219","none"
"1327.1000000238419","false","headache,fever","32","90,76","A","C","76","rare","training","13","true","2","categorize-html","29","182981","0.0-4.0-25.0","76168","20222219","none"
"1453.3000000715256","false","headache,rash","32","90,76","A","B","90","common","training","14","true","2","categorize-html","31","185445","0.0-4.0-27.0","76168","20222219","none"
"1782.3999999761581","false","rash,headache","32","90,76","B","A","90","common","training","15","true","2","categorize-html","33","188244","0.0-4.0-29.0","76168","20222219","none"
"1271","false","rash,headache","32","90,76","B","A","90","common","training","16","true","2","categorize-html","35","190534","0.0-4.0-31.0","76168","20222219","none"
"9553.100000023842","false","headache","76","90,76","A","","","","test","1","true","","categorize-html","39","229213","0.0-6.0-0.0","76168","20222219","rare"
"1404.1000000238419","false","rash,fever","76","90,76","B","C","","","test","2","true","","categorize-html","41","232142","0.0-6.0-2.0","76168","20222219","rare"
"1591.9000000953674","false","fever","76","90,76","C","","","","test","3","true","","categorize-html","43","235249","0.0-6.0-4.0","76168","20222219","rare"
"1606.5","false","rash","90","90,76","B","","","","test","4","true","","categorize-html","45","238374","0.0-6.0-6.0","76168","20222219","common"
"2792.100000023842","false","headache,rash","90","90,76","A","B","","","test","5","true","","categorize-html","47","242691","0.0-6.0-8.0","76168","20222219","common"
"4268.899999976158","false","headache","90","90,76","A","","","","test","6","true","","categorize-html","49","248480","0.0-6.0-10.0","76168","20222219","common"
"1349.6000000238419","false","rash","90","90,76","B","","","","test","7","true","","categorize-html","51","251362","0.0-6.0-12.0","76168","20222219","common"
"1277.2000000476837","false","fever","76","90,76","C","","","","test","8","true","","categorize-html","53","254152","0.0-6.0-14.0","76168","20222219","rare"
"2181.0999999046326","false","fever,headache","76","90,76","C","A","","","test","9","true","","categorize-html","55","257859","0.0-6.0-16.0","76168","20222219","rare"
"6068.100000023842","false","fever,rash","76","90,76","C","B","","","test","10","true","","categorize-html","57","265452","0.0-6.0-18.0","76168","20222219","rare"
"3264.2000000476837","false","headache,fever","76","90,76","A","C","","","test","11","true","","categorize-html","59","270243","0.0-6.0-20.0","76168","20222219","rare"
"1540.0999999046326","false","rash,headache","90","90,76","B","A","","","test","12","true","","categorize-html","61","273318","0.0-6.0-22.0","76168","20222219","common"
"4191.700000047684","false","headache","90","90,76","A","","","","test","13","true","","categorize-html","63","279033","0.0-6.0-24.0","76168","20222219","common"
"1176.6000000238419","false","fever","76","90,76","C","","","","test","14","true","","categorize-html","65","281723","0.0-6.0-26.0","76168","20222219","rare"
"1545.1000000238419","false","headache,fever","76","90,76","A","C","","","test","15","true","","categorize-html","67","284792","0.0-6.0-28.0","76168","20222219","rare"
"2159.899999976158","false","headache","76","90,76","A","","","","test","16","true","","categorize-html","69","288470","0.0-6.0-30.0","76168","20222219","rare"
"1377.3999999761581","false","rash","90","90,76","B","","","","test","17","true","","categorize-html","71","291363","0.0-6.0-32.0","76168","20222219","common"
"1541.0999999046326","false","rash,headache","90","90,76","B","A","","","test","18","true","","categorize-html","73","294421","0.0-6.0-34.0","76168","20222219","common"
"2847.399999976158","false","fever,rash","76","90,76","C","B","","","test","19","true","","categorize-html","75","298785","0.0-6.0-36.0","76168","20222219","rare"
"2041.1000000238419","false","headache,rash","90","90,76","A","B","","","test","20","true","","categorize-html","77","302356","0.0-6.0-38.0","76168","20222219","common"
"1262.8999999761581","false","fever","76","90,76","C","","","","test","21","true","","categorize-html","79","305141","0.0-6.0-40.0","76168","20222219","rare"
"1720.6999999284744","false","fever,headache","76","90,76","C","A","","","test","22","true","","categorize-html","81","308384","0.0-6.0-42.0","76168","20222219","rare"
"2007.6000000238419","false","rash,fever","90","90,76","B","C","","","test","23","true","","categorize-html","83","311907","0.0-6.0-44.0","76168","20222219","common"
"2008.1000000238419","false","rash","90","90,76","B","","","","test","24","true","","categorize-html","85","315437","0.0-6.0-46.0","76168","20222219","common"
"2350","false","fever,rash","76","90,76","C","B","","","test","25","true","","categorize-html","88","321860","0.0-6.0-49.0","76168","20222219","rare"
"1933","false","headache,rash","90","90,76","A","B","","","test","26","true","","categorize-html","90","325312","0.0-6.0-51.0","76168","20222219","common"
"2790.3000000715256","false","headache","90","90,76","A","","","","test","27","true","","categorize-html","92","329635","0.0-6.0-53.0","76168","20222219","common"
"1436.9000000953674","false","fever","76","90,76","C","","","","test","28","true","","categorize-html","94","332586","0.0-6.0-55.0","76168","20222219","rare"
"1283.2999999523163","false","rash,fever","90","90,76","B","C","","","test","29","true","","categorize-html","96","335399","0.0-6.0-57.0","76168","20222219","common"
"1077.2000000476837","false","fever,headache","76","90,76","C","A","","","test","30","true","","categorize-html","98","337984","0.0-6.0-59.0","76168","20222219","rare"
"550.5","false","fever","76","90,76","C","","","","test","31","true","","categorize-html","100","340060","0.0-6.0-61.0","76168","20222219","rare"
"1648.6000000238419","false","headache","90","90,76","A","","","","test","32","true","","categorize-html","102","343214","0.0-6.0-63.0","76168","20222219","common"
"1063.8999999761581","false","rash","90","90,76","B","","","","test","33","true","","categorize-html","104","345798","0.0-6.0-65.0","76168","20222219","common"
"734.7000000476837","false","rash","90","90,76","B","","","","test","34","true","","categorize-html","106","348057","0.0-6.0-67.0","76168","20222219","common"
"1022.1000000238419","false","headache,fever","76","90,76","A","C","","","test","35","true","","categorize-html","108","350594","0.0-6.0-69.0","76168","20222219","rare"
"841.7999999523163","false","rash,headache","90","90,76","B","A","","","test","36","true","","categorize-html","110","352945","0.0-6.0-71.0","76168","20222219","common"
"642.5","false","fever","76","90,76","C","","","","test","37","true","","categorize-html","112","355100","0.0-6.0-73.0","76168","20222219","rare"
"1150.6000000238419","false","fever,rash","76","90,76","C","B","","","test","38","true","","categorize-html","114","357781","0.0-6.0-75.0","76168","20222219","rare"
"556.3999999761581","false","fever","76","90,76","C","","","","test","39","true","","categorize-html","116","359867","0.0-6.0-77.0","76168","20222219","rare"
"810.4000000953674","false","rash,fever","90","90,76","B","C","","","test","40","true","","categorize-html","118","362194","0.0-6.0-79.0","76168","20222219","common"
"867","false","headache,fever","76","90,76","A","C","","","test","41","true","","categorize-html","120","364586","0.0-6.0-81.0","76168","20222219","rare"
"762.5","false","fever,headache","76","90,76","C","A","","","test","42","true","","categorize-html","122","366876","0.0-6.0-83.0","76168","20222219","rare"
"848.7999999523163","false","rash","90","90,76","B","","","","test","43","true","","categorize-html","124","369245","0.0-6.0-85.0","76168","20222219","common"
"921.2000000476837","false","rash","90","90,76","B","","","","test","44","true","","categorize-html","126","371696","0.0-6.0-87.0","76168","20222219","common"
"1037.1000000238419","false","headache","76","90,76","A","","","","test","45","true","","categorize-html","128","374259","0.0-6.0-89.0","76168","20222219","rare"
"1079.1000000238419","false","headache","90","90,76","A","","","","test","46","true","","categorize-html","130","376865","0.0-6.0-91.0","76168","20222219","common"
"986.2999999523163","false","rash,headache","90","90,76","B","A","","","test","47","true","","categorize-html","132","379369","0.0-6.0-93.0","76168","20222219","common"
"1288.6000000238419","false","headache,rash","90","90,76","A","B","","","test","48","true","","categorize-html","134","382183","0.0-6.0-95.0","76168","20222219","common"
"919.8000000715256","false","rash","90","90,76","B","","","","test","49","true","","categorize-html","137","387032","0.0-6.0-98.0","76168","20222219","common"
"939.1999999284744","false","headache,rash","90","90,76","A","B","","","test","50","true","","categorize-html","139","389485","0.0-6.0-100.0","76168","20222219","common"
"452.10000002384186","false","fever","76","90,76","C","","","","test","51","true","","categorize-html","141","391464","0.0-6.0-102.0","76168","20222219","rare"
"1132.2999999523163","false","headache","76","90,76","A","","","","test","52","true","","categorize-html","143","394112","0.0-6.0-104.0","76168","20222219","rare"
"2713.100000023842","false","rash,fever","90","90,76","B","C","","","test","53","true","","categorize-html","145","398341","0.0-6.0-106.0","76168","20222219","common"
"1463.5","false","fever","76","90,76","C","","","","test","54","true","","categorize-html","147","401322","0.0-6.0-108.0","76168","20222219","rare"
"701.6999999284744","false","rash,headache","90","90,76","B","A","","","test","55","true","","categorize-html","149","403552","0.0-6.0-110.0","76168","20222219","common"
"1518.6000000238419","false","fever,rash","76","90,76","C","B","","","test","56","true","","categorize-html","151","406592","0.0-6.0-112.0","76168","20222219","rare"
"1051.2000000476837","false","rash","90","90,76","B","","","","test","57","true","","categorize-html","153","409163","0.0-6.0-114.0","76168","20222219","common"
"2422.5999999046326","false","headache,fever","76","90,76","A","C","","","test","58","true","","categorize-html","155","413114","0.0-6.0-116.0","76168","20222219","rare"
"1749.2999999523163","false","fever,headache","76","90,76","C","A","","","test","59","true","","categorize-html","157","416389","0.0-6.0-118.0","76168","20222219","rare"
"1741.7999999523163","false","headache","90","90,76","A","","","","test","60","true","","categorize-html","159","419662","0.0-6.0-120.0","76168","20222219","common"
"1527.1000000238419","false","headache,rash","90","90,76","A","B","","","test","61","true","","categorize-html","161","422709","0.0-6.0-122.0","76168","20222219","common"
"1909.8999999761581","false","rash,fever","76","90,76","B","C","","","test","62","true","","categorize-html","163","426132","0.0-6.0-124.0","76168","20222219","rare"
"3417.600000023842","false","fever,rash","76","90,76","C","B","","","test","63","true","","categorize-html","165","431080","0.0-6.0-126.0","76168","20222219","rare"
"856.1999999284744","false","fever","76","90,76","C","","","","test","64","true","","categorize-html","167","433452","0.0-6.0-128.0","76168","20222219","rare"
"744","false","rash","90","90,76","B","","","","test","65","true","","categorize-html","169","435713","0.0-6.0-130.0","76168","20222219","common"
"758.3999999761581","false","rash","90","90,76","B","","","","test","66","true","","categorize-html","171","437989","0.0-6.0-132.0","76168","20222219","common"
"926.7999999523163","false","rash,headache","90","90,76","B","A","","","test","67","true","","categorize-html","173","440447","0.0-6.0-134.0","76168","20222219","common"
"750.5","false","headache,fever","76","90,76","A","C","","","test","68","true","","categorize-html","175","442733","0.0-6.0-136.0","76168","20222219","rare"
"916.6000000238419","false","fever,headache","76","90,76","C","A","","","test","69","true","","categorize-html","177","445183","0.0-6.0-138.0","76168","20222219","rare"
"1022.6000000238419","false","headache","76","90,76","A","","","","test","70","true","","categorize-html","179","447734","0.0-6.0-140.0","76168","20222219","rare"
"992.5","false","headache","90","90,76","A","","","","test","71","true","","categorize-html","181","450248","0.0-6.0-142.0","76168","20222219","common"
"1266.5","false","fever","76","90,76","C","","","","test","72","true","","categorize-html","183","453038","0.0-6.0-144.0","76168","20222219","rare"
"1220.5","false","headache,rash","90","90,76","A","B","","","test","73","true","","categorize-html","186","456959","0.0-6.0-147.0","76168","20222219","common"
"1272.5999999046326","false","headache","90","90,76","A","","","","test","74","true","","categorize-html","188","459751","0.0-6.0-149.0","76168","20222219","common"
"1585.2000000476837","false","rash,fever","90","90,76","B","C","","","test","75","true","","categorize-html","190","462867","0.0-6.0-151.0","76168","20222219","common"
"560.5","false","fever","76","90,76","C","","","","test","76","true","","categorize-html","192","464953","0.0-6.0-153.0","76168","20222219","rare"
"651.7000000476837","false","rash","90","90,76","B","","","","test","77","true","","categorize-html","194","467124","0.0-6.0-155.0","76168","20222219","common"
"820.4000000953674","false","fever,rash","76","90,76","C","B","","","test","78","true","","categorize-html","196","469456","0.0-6.0-157.0","76168","20222219","rare"
"825.8000000715256","false","headache","76","90,76","A","","","","test","79","true","","categorize-html","198","471796","0.0-6.0-159.0","76168","20222219","rare"
"702.2999999523163","false","fever","90","90,76","C","","","","test","80","true","","categorize-html","200","474019","0.0-6.0-161.0","76168","20222219","common"
"708.4000000953674","false","rash","90","90,76","B","","","","test","81","true","","categorize-html","202","476247","0.0-6.0-163.0","76168","20222219","common"
"1045.9000000953674","false","fever,headache","76","90,76","C","A","","","test","82","true","","categorize-html","204","478815","0.0-6.0-165.0","76168","20222219","rare"
"769.6999999284744","false","headache,fever","76","90,76","A","C","","","test","83","true","","categorize-html","206","481107","0.0-6.0-167.0","76168","20222219","rare"
"921.2999999523163","false","rash,headache","90","90,76","B","A","","","test","84","true","","categorize-html","208","483551","0.0-6.0-169.0","76168","20222219","common"
"764.2999999523163","false","headache","90","90,76","A","","","","test","85","true","","categorize-html","210","485842","0.0-6.0-171.0","76168","20222219","common"
"787.7000000476837","false","fever,headache","76","90,76","C","A","","","test","86","true","","categorize-html","212","488140","0.0-6.0-173.0","76168","20222219","rare"
"555.2000000476837","false","fever","76","90,76","C","","","","test","87","true","","categorize-html","214","490222","0.0-6.0-175.0","76168","20222219","rare"
"725.3999999761581","false","rash,headache","90","90,76","B","A","","","test","88","true","","categorize-html","216","492475","0.0-6.0-177.0","76168","20222219","common"
"668.2000000476837","false","fever","76","90,76","C","","","","test","89","true","","categorize-html","218","494654","0.0-6.0-179.0","76168","20222219","rare"
"591.2999999523163","false","rash","90","90,76","B","","","","test","90","true","","categorize-html","220","496764","0.0-6.0-181.0","76168","20222219","common"
"671.3000000715256","false","rash,fever","90","90,76","B","C","","","test","91","true","","categorize-html","222","498950","0.0-6.0-183.0","76168","20222219","common"
"816","false","headache,rash","90","90,76","A","B","","","test","92","true","","categorize-html","224","501293","0.0-6.0-185.0","76168","20222219","common"
"712.3000000715256","false","headache","90","90,76","A","","","","test","93","true","","categorize-html","226","503524","0.0-6.0-187.0","76168","20222219","common"
"778.7999999523163","false","headache,fever","76","90,76","A","C","","","test","94","true","","categorize-html","228","505832","0.0-6.0-189.0","76168","20222219","rare"
"597.8999999761581","false","fever,rash","76","90,76","C","B","","","test","95","true","","categorize-html","230","507950","0.0-6.0-191.0","76168","20222219","rare"
"502.10000002384186","false","rash","76","90,76","B","","","","test","96","true","","categorize-html","232","509973","0.0-6.0-193.0","76168","20222219","rare"
"1386.6999999284744","false","fever","76","90,76","C","","","","test","97","true","","categorize-html","235","513891","0.0-6.0-196.0","76168","20222219","rare"
"712.5999999046326","false","headache","90","90,76","A","","","","test","98","true","","categorize-html","237","516127","0.0-6.0-198.0","76168","20222219","common"
"912.2000000476837","false","rash","90","90,76","B","","","","test","99","true","","categorize-html","239","518559","0.0-6.0-200.0","76168","20222219","common"
"807","false","rash,fever","90","90,76","B","C","","","test","100","true","","categorize-html","241","520888","0.0-6.0-202.0","76168","20222219","common"
"538.9000000953674","false","rash","90","90,76","B","","","","test","101","true","","categorize-html","243","522942","0.0-6.0-204.0","76168","20222219","common"
"628.8000000715256","false","rash,headache","90","90,76","B","A","","","test","102","true","","categorize-html","245","525100","0.0-6.0-206.0","76168","20222219","common"
"719","false","headache,rash","90","90,76","A","B","","","test","103","true","","categorize-html","247","527351","0.0-6.0-208.0","76168","20222219","common"
"628.1000000238419","false","fever,headache","76","90,76","C","A","","","test","104","true","","categorize-html","249","529513","0.0-6.0-210.0","76168","20222219","rare"
"435.89999997615814","false","headache","90","90,76","A","","","","test","105","true","","categorize-html","251","531471","0.0-6.0-212.0","76168","20222219","common"
"619.2999999523163","false","headache,fever","76","90,76","A","C","","","test","106","true","","categorize-html","253","533611","0.0-6.0-214.0","76168","20222219","rare"
"532.2999999523163","false","fever","76","90,76","C","","","","test","107","true","","categorize-html","255","535676","0.0-6.0-216.0","76168","20222219","rare"
"741.6999999284744","false","fever,rash","76","90,76","C","B","","","test","108","true","","categorize-html","257","537936","0.0-6.0-218.0","76168","20222219","rare"
"468.60000002384186","false","fever","76","90,76","C","","","","test","109","true","","categorize-html","259","539927","0.0-6.0-220.0","76168","20222219","rare"
"595.7000000476837","false","rash,headache","90","90,76","B","A","","","test","110","true","","categorize-html","261","542045","0.0-6.0-222.0","76168","20222219","common"
"590","false","rash","90","90,76","B","","","","test","111","true","","categorize-html","263","544154","0.0-6.0-224.0","76168","20222219","common"
"817.2000000476837","false","headache,rash","90","90,76","A","B","","","test","112","true","","categorize-html","265","546490","0.0-6.0-226.0","76168","20222219","common"
"630.7000000476837","false","rash","90","90,76","B","","","","test","113","true","","categorize-html","267","548641","0.0-6.0-228.0","76168","20222219","common"
"585.1999999284744","false","headache,fever","76","90,76","A","C","","","test","114","true","","categorize-html","269","550747","0.0-6.0-230.0","76168","20222219","rare"
"779.1999999284744","false","headache","76","90,76","A","","","","test","115","true","","categorize-html","271","553045","0.0-6.0-232.0","76168","20222219","rare"
"473.10000002384186","false","fever","76","90,76","C","","","","test","116","true","","categorize-html","273","555048","0.0-6.0-234.0","76168","20222219","rare"
"499.1999999284744","false","fever,headache","76","90,76","C","A","","","test","117","true","","categorize-html","275","557072","0.0-6.0-236.0","76168","20222219","rare"
"442.89999997615814","false","fever,rash","76","90,76","C","B","","","test","118","true","","categorize-html","277","559035","0.0-6.0-238.0","76168","20222219","rare"
"877.7999999523163","false","headache","90","90,76","A","","","","test","119","true","","categorize-html","279","561433","0.0-6.0-240.0","76168","20222219","common"
"661.3999999761581","false","rash,fever","90","90,76","B","C","","","test","120","true","","categorize-html","281","563613","0.0-6.0-242.0","76168","20222219","common"
