"rt","correct","stimulus","key_press","keys","symptom1","symptom2","key","category","phase","trial","include","block","trial_type","trial_index","time_elapsed","internal_node_id","ppt","session","abresp"
"null","false","headache,rash","null","90,76","A","B","90","common","training","1","true","1","categorize-html","4","313298","0.0-4.0-0.0","75394","20222311","none"
"4888.200000047684","false","rash,headache","32","90,76","B","A","90","common","training","2","true","1","categorize-html","6","319191","0.0-4.0-2.0","75394","20222311","none"
"3981.100000143051","false","rash,headache","32","90,76","B","A","90","common","training","3","true","1","categorize-html","8","324178","0.0-4.0-4.0","75394","20222311","none"
"null","false","fever,headache","null","90,76","C","A","76","rare","training","4","true","1","categorize-html","10","330187","0.0-4.0-6.0","75394","20222311","none"
"4450.299999952316","false","headache,rash","32","90,76","A","B","90","common","training","5","true","1","categorize-html","12","335643","0.0-4.0-8.0","75394","20222311","none"
"3209.9000000953674","false","headache,fever","32","90,76","A","C","76","rare","training","6","true","1","categorize-html","14","339862","0.0-4.0-10.0","75394","20222311","none"
"3381.7999999523163","false","headache,rash","32","90,76","A","B","90","common","training","7","true","1","categorize-html","16","344249","0.0-4.0-12.0","75394","20222311","none"
"3128.800000190735","false","rash,headache","32","90,76","B","A","90","common","training","8","true","1","categorize-html","18","348383","0.0-4.0-14.0","75394","20222311","none"
"3426.4000000953674","false","fever,headache","32","90,76","C","A","76","rare","training","9","true","2","categorize-html","21","357413","0.0-4.0-17.0","75394","20222311","none"
"2368.600000143051","false","headache,rash","32","90,76","A","B","90","common","training","10","true","2","categorize-html","23","360787","0.0-4.0-19.0","75394","20222311","none"
"2079.7999999523163","false","headache,rash","32","90,76","A","B","90","common","training","11","true","2","categorize-html","25","363872","0.0-4.0-21.0","75394","20222311","none"
"2003.5999999046326","false","headache,rash","32","90,76","A","B","90","common","training","12","true","2","categorize-html","27","366879","0.0-4.0-23.0","75394","20222311","none"
"2397","false","rash,headache","32","90,76","B","A","90","common","training","13","true","2","categorize-html","29","370285","0.0-4.0-25.0","75394","20222311","none"
"1908","false","rash,headache","32","90,76","B","A","90","common","training","14","true","2","categorize-html","31","373204","0.0-4.0-27.0","75394","20222311","none"
"2436.7000000476837","false","headache,fever","32","90,76","A","C","76","rare","training","15","true","2","categorize-html","33","376650","0.0-4.0-29.0","75394","20222311","none"
"2752.7000000476837","false","rash,headache","32","90,76","B","A","90","common","training","16","true","2","categorize-html","35","380406","0.0-4.0-31.0","75394","20222311","none"
"9903.800000190735","false","rash,fever","90","90,76","B","C","","","test","1","true","","categorize-html","39","449360","0.0-6.0-0.0","75394","20222311","common"
"3534.5","false","rash,headache","90","90,76","B","A","","","test","2","true","","categorize-html","41","454403","0.0-6.0-2.0","75394","20222311","common"
"2623","false","headache,rash","90","90,76","A","B","","","test","3","true","","categorize-html","43","458533","0.0-6.0-4.0","75394","20222311","common"
"4990.799999952316","false","headache","76","90,76","A","","","","test","4","true","","categorize-html","45","465031","0.0-6.0-6.0","75394","20222311","rare"
"2445.2000000476837","false","rash","90","90,76","B","","","","test","5","true","","categorize-html","47","468989","0.0-6.0-8.0","75394","20222311","common"
"4115.5","false","fever","76","90,76","C","","","","test","6","true","","categorize-html","49","474616","0.0-6.0-10.0","75394","20222311","rare"
"1534.4000000953674","false","headache","90","90,76","A","","","","test","7","true","","categorize-html","51","477655","0.0-6.0-12.0","75394","20222311","common"
"2883.699999809265","false","headache,fever","90","90,76","A","C","","","test","8","true","","categorize-html","53","482046","0.0-6.0-14.0","75394","20222311","common"
"1861.5","false","fever","76","90,76","C","","","","test","9","true","","categorize-html","55","485419","0.0-6.0-16.0","75394","20222311","rare"
"2242.5","false","fever,headache","76","90,76","C","A","","","test","10","true","","categorize-html","57","489172","0.0-6.0-18.0","75394","20222311","rare"
"4737.100000143051","false","fever,rash","76","90,76","C","B","","","test","11","true","","categorize-html","59","495415","0.0-6.0-20.0","75394","20222311","rare"
"1378.6999998092651","false","rash","90","90,76","B","","","","test","12","true","","categorize-html","61","498303","0.0-6.0-22.0","75394","20222311","common"
"3549.7999999523163","false","fever,headache","76","90,76","C","A","","","test","13","true","","categorize-html","63","503361","0.0-6.0-24.0","75394","20222311","rare"
"1598.2000000476837","false","headache","90","90,76","A","","","","test","14","true","","categorize-html","65","506470","0.0-6.0-26.0","75394","20222311","common"
"3517.7999999523163","false","headache,rash","90","90,76","A","B","","","test","15","true","","categorize-html","67","511497","0.0-6.0-28.0","75394","20222311","common"
"4585.799999952316","false","headache,fever","76","90,76","A","C","","","test","16","true","","categorize-html","69","517594","0.0-6.0-30.0","75394","20222311","rare"
"2714.0999999046326","false","fever","76","90,76","C","","","","test","17","true","","categorize-html","71","521818","0.0-6.0-32.0","75394","20222311","rare"
"1726.5999999046326","false","rash,fever","76","90,76","B","C","","","test","18","true","","categorize-html","73","525051","0.0-6.0-34.0","75394","20222311","rare"
"997.1999998092651","false","fever","76","90,76","C","","","","test","19","true","","categorize-html","75","527559","0.0-6.0-36.0","75394","20222311","rare"
"2175.100000143051","false","rash","90","90,76","B","","","","test","20","true","","categorize-html","77","531242","0.0-6.0-38.0","75394","20222311","common"
"3492.600000143051","false","fever,rash","76","90,76","C","B","","","test","21","true","","categorize-html","79","536242","0.0-6.0-40.0","75394","20222311","rare"
"1093.5999999046326","false","rash","90","90,76","B","","","","test","22","true","","categorize-html","81","538846","0.0-6.0-42.0","75394","20222311","common"
"1956.9000000953674","false","rash,headache","90","90,76","B","A","","","test","23","true","","categorize-html","83","542313","0.0-6.0-44.0","75394","20222311","common"
"1513.7999999523163","false","headache","90","90,76","A","","","","test","24","true","","categorize-html","85","545335","0.0-6.0-46.0","75394","20222311","common"
"1868.5999999046326","false","rash","90","90,76","B","","","","test","25","true","","categorize-html","88","551685","0.0-6.0-49.0","75394","20222311","common"
"861.5","false","headache,fever","76","90,76","A","C","","","test","26","true","","categorize-html","90","554054","0.0-6.0-51.0","75394","20222311","rare"
"1375.5999999046326","false","fever,headache","76","90,76","C","A","","","test","27","true","","categorize-html","92","556937","0.0-6.0-53.0","75394","20222311","rare"
"990.3000001907349","false","headache,rash","90","90,76","A","B","","","test","28","true","","categorize-html","94","559437","0.0-6.0-55.0","75394","20222311","common"
"946.2999999523163","false","rash","90","90,76","B","","","","test","29","true","","categorize-html","96","561893","0.0-6.0-57.0","75394","20222311","common"
"1769","false","rash,headache","90","90,76","B","A","","","test","30","true","","categorize-html","98","565168","0.0-6.0-59.0","75394","20222311","common"
"1252.6000001430511","false","rash,fever","76","90,76","B","C","","","test","31","true","","categorize-html","100","567929","0.0-6.0-61.0","75394","20222311","rare"
"954","false","fever","90","90,76","C","","","","test","32","true","","categorize-html","102","570390","0.0-6.0-63.0","75394","20222311","common"
"2029.2000000476837","false","fever,rash","76","90,76","C","B","","","test","33","true","","categorize-html","104","573930","0.0-6.0-65.0","75394","20222311","rare"
"1108.7999999523163","false","fever","76","90,76","C","","","","test","34","true","","categorize-html","106","576545","0.0-6.0-67.0","75394","20222311","rare"
"1052.2999999523163","false","headache","90","90,76","A","","","","test","35","true","","categorize-html","108","579107","0.0-6.0-69.0","75394","20222311","common"
"959.5","false","headache","90","90,76","A","","","","test","36","true","","categorize-html","110","581575","0.0-6.0-71.0","75394","20222311","common"
"3127.2000000476837","false","rash,fever","76","90,76","B","C","","","test","37","true","","categorize-html","112","586207","0.0-6.0-73.0","75394","20222311","rare"
"877.0999999046326","false","fever","76","90,76","C","","","","test","38","true","","categorize-html","114","588592","0.0-6.0-75.0","75394","20222311","rare"
"680.3000001907349","false","fever","76","90,76","C","","","","test","39","true","","categorize-html","116","590783","0.0-6.0-77.0","75394","20222311","rare"
"1086.6999998092651","false","fever,headache","76","90,76","C","A","","","test","40","true","","categorize-html","118","593380","0.0-6.0-79.0","75394","20222311","rare"
"637.5999999046326","false","headache","76","90,76","A","","","","test","41","true","","categorize-html","120","595524","0.0-6.0-81.0","75394","20222311","rare"
"1012.2000000476837","false","rash","90","90,76","B","","","","test","42","true","","categorize-html","122","598041","0.0-6.0-83.0","75394","20222311","common"
"1708","false","rash","90","90,76","B","","","","test","43","true","","categorize-html","124","601257","0.0-6.0-85.0","75394","20222311","common"
"1225.2999999523163","false","headache,rash","90","90,76","A","B","","","test","44","true","","categorize-html","126","603993","0.0-6.0-87.0","75394","20222311","common"
"1057.5","false","rash,headache","90","90,76","B","A","","","test","45","true","","categorize-html","128","606561","0.0-6.0-89.0","75394","20222311","common"
"5113.5","false","headache,fever","76","90,76","A","C","","","test","46","true","","categorize-html","130","613182","0.0-6.0-91.0","75394","20222311","rare"
"1779","false","headache","90","90,76","A","","","","test","47","true","","categorize-html","132","616470","0.0-6.0-93.0","75394","20222311","common"
"1849.7000000476837","false","fever,rash","76","90,76","C","B","","","test","48","true","","categorize-html","134","619825","0.0-6.0-95.0","75394","20222311","rare"
"3229.2999999523163","false","rash","90","90,76","B","","","","test","49","true","","categorize-html","137","625910","0.0-6.0-98.0","75394","20222311","common"
"2120.0999999046326","false","headache,rash","90","90,76","A","B","","","test","50","true","","categorize-html","139","629538","0.0-6.0-100.0","75394","20222311","common"
"1635.5999999046326","false","headache","90","90,76","A","","","","test","51","true","","categorize-html","141","632682","0.0-6.0-102.0","75394","20222311","common"
"2091","false","rash,headache","90","90,76","B","A","","","test","52","true","","categorize-html","143","636281","0.0-6.0-104.0","75394","20222311","common"
"835.2999999523163","false","fever,headache","76","90,76","C","A","","","test","53","true","","categorize-html","145","638623","0.0-6.0-106.0","75394","20222311","rare"
"785","false","rash","90","90,76","B","","","","test","54","true","","categorize-html","147","640918","0.0-6.0-108.0","75394","20222311","common"
"778.2000000476837","false","fever","76","90,76","C","","","","test","55","true","","categorize-html","149","643205","0.0-6.0-110.0","75394","20222311","rare"
"1197.0999999046326","false","fever,rash","76","90,76","C","B","","","test","56","true","","categorize-html","151","645905","0.0-6.0-112.0","75394","20222311","rare"
"1036.7000000476837","false","fever","76","90,76","C","","","","test","57","true","","categorize-html","153","648454","0.0-6.0-114.0","75394","20222311","rare"
"1566.2000000476837","false","headache,fever","76","90,76","A","C","","","test","58","true","","categorize-html","155","651527","0.0-6.0-116.0","75394","20222311","rare"
"1445.2999999523163","false","rash,fever","76","90,76","B","C","","","test","59","true","","categorize-html","157","654482","0.0-6.0-118.0","75394","20222311","rare"
"6896.700000047684","false","headache","90","90,76","A","","","","test","60","true","","categorize-html","159","662891","0.0-6.0-120.0","75394","20222311","common"
"979","false","rash","90","90,76","B","","","","test","61","true","","categorize-html","161","665377","0.0-6.0-122.0","75394","20222311","common"
"1017.8000001907349","false","fever","76","90,76","C","","","","test","62","true","","categorize-html","163","667901","0.0-6.0-124.0","75394","20222311","rare"
"1168.9000000953674","false","headache","90","90,76","A","","","","test","63","true","","categorize-html","165","670580","0.0-6.0-126.0","75394","20222311","common"
"1198.2000000476837","false","rash,fever","76","90,76","B","C","","","test","64","true","","categorize-html","167","673285","0.0-6.0-128.0","75394","20222311","rare"
"1023.4000000953674","false","rash,headache","90","90,76","B","A","","","test","65","true","","categorize-html","169","675819","0.0-6.0-130.0","75394","20222311","common"
"1101.2999999523163","false","fever,headache","76","90,76","C","A","","","test","66","true","","categorize-html","171","678429","0.0-6.0-132.0","75394","20222311","rare"
"1750.9000000953674","false","headache","90","90,76","A","","","","test","67","true","","categorize-html","173","681687","0.0-6.0-134.0","75394","20222311","common"
"1154.0999999046326","false","headache,rash","76","90,76","A","B","","","test","68","true","","categorize-html","175","684342","0.0-6.0-136.0","75394","20222311","rare"
"1462.7999999523163","false","rash","90","90,76","B","","","","test","69","true","","categorize-html","177","687307","0.0-6.0-138.0","75394","20222311","common"
"911.7999999523163","false","fever,rash","76","90,76","C","B","","","test","70","true","","categorize-html","179","689723","0.0-6.0-140.0","75394","20222311","rare"
"1007.9000000953674","false","headache,fever","90","90,76","A","C","","","test","71","true","","categorize-html","181","692233","0.0-6.0-142.0","75394","20222311","common"
"717.5","false","fever","76","90,76","C","","","","test","72","true","","categorize-html","183","694453","0.0-6.0-144.0","75394","20222311","rare"
"2357","false","headache,rash","90","90,76","A","B","","","test","73","true","","categorize-html","186","699583","0.0-6.0-147.0","75394","20222311","common"
"3520.2000000476837","false","headache,fever","76","90,76","A","C","","","test","74","true","","categorize-html","188","704611","0.0-6.0-149.0","75394","20222311","rare"
"867.6000001430511","false","fever","76","90,76","C","","","","test","75","true","","categorize-html","190","706984","0.0-6.0-151.0","75394","20222311","rare"
"1278.7000000476837","false","headache","90","90,76","A","","","","test","76","true","","categorize-html","192","709767","0.0-6.0-153.0","75394","20222311","common"
"1062","false","rash","90","90,76","B","","","","test","77","true","","categorize-html","194","712338","0.0-6.0-155.0","75394","20222311","common"
"2302.399999856949","false","fever,headache","76","90,76","C","A","","","test","78","true","","categorize-html","196","716146","0.0-6.0-157.0","75394","20222311","rare"
"1589.5999999046326","false","headache","90","90,76","A","","","","test","79","true","","categorize-html","198","719243","0.0-6.0-159.0","75394","20222311","common"
"1558.0999999046326","false","rash,headache","90","90,76","B","A","","","test","80","true","","categorize-html","200","722311","0.0-6.0-161.0","75394","20222311","common"
"888.7999999523163","false","fever","76","90,76","C","","","","test","81","true","","categorize-html","202","724711","0.0-6.0-163.0","75394","20222311","rare"
"669.5","false","fever,rash","76","90,76","C","B","","","test","82","true","","categorize-html","204","726885","0.0-6.0-165.0","75394","20222311","rare"
"838.3999998569489","false","rash","90","90,76","B","","","","test","83","true","","categorize-html","206","729230","0.0-6.0-167.0","75394","20222311","common"
"998.6000001430511","false","rash,fever","76","90,76","B","C","","","test","84","true","","categorize-html","208","731734","0.0-6.0-169.0","75394","20222311","rare"
"1338","false","headache,fever","76","90,76","A","C","","","test","85","true","","categorize-html","210","734579","0.0-6.0-171.0","75394","20222311","rare"
"1020.7000000476837","false","fever","76","90,76","C","","","","test","86","true","","categorize-html","212","737108","0.0-6.0-173.0","75394","20222311","rare"
"715.2000000476837","false","fever","76","90,76","C","","","","test","87","true","","categorize-html","214","739332","0.0-6.0-175.0","75394","20222311","rare"
"1150.9000000953674","false","headache","90","90,76","A","","","","test","88","true","","categorize-html","216","741992","0.0-6.0-177.0","75394","20222311","common"
"2539.2999999523163","false","headache,rash","90","90,76","A","B","","","test","89","true","","categorize-html","218","746039","0.0-6.0-179.0","75394","20222311","common"
"1974.7999999523163","false","fever,rash","76","90,76","C","B","","","test","90","true","","categorize-html","220","749521","0.0-6.0-181.0","75394","20222311","rare"
"1870.8999998569489","false","rash,fever","76","90,76","B","C","","","test","91","true","","categorize-html","222","752903","0.0-6.0-183.0","75394","20222311","rare"
"1071.8000001907349","false","headache","90","90,76","A","","","","test","92","true","","categorize-html","224","755484","0.0-6.0-185.0","75394","20222311","common"
"1336.7000000476837","false","fever,headache","76","90,76","C","A","","","test","93","true","","categorize-html","226","758330","0.0-6.0-187.0","75394","20222311","rare"
"3805.5999999046326","false","rash,headache","90","90,76","B","A","","","test","94","true","","categorize-html","228","763647","0.0-6.0-189.0","75394","20222311","common"
"2915.0999999046326","false","rash","90","90,76","B","","","","test","95","true","","categorize-html","230","768069","0.0-6.0-191.0","75394","20222311","common"
"1542.6000001430511","false","rash","90","90,76","B","","","","test","96","true","","categorize-html","232","771118","0.0-6.0-193.0","75394","20222311","common"
"4997.299999952316","false","fever,headache","76","90,76","C","A","","","test","97","true","","categorize-html","235","779079","0.0-6.0-196.0","75394","20222311","rare"
"725.9000000953674","false","rash","90","90,76","B","","","","test","98","true","","categorize-html","237","781313","0.0-6.0-198.0","75394","20222311","common"
"974.3000001907349","false","rash,headache","90","90,76","B","A","","","test","99","true","","categorize-html","239","783793","0.0-6.0-200.0","75394","20222311","common"
"881.8999998569489","false","headache,fever","76","90,76","A","C","","","test","100","true","","categorize-html","241","786186","0.0-6.0-202.0","75394","20222311","rare"
"751.9000000953674","false","fever,rash","76","90,76","C","B","","","test","101","true","","categorize-html","243","788448","0.0-6.0-204.0","75394","20222311","rare"
"762.4000000953674","false","headache","90","90,76","A","","","","test","102","true","","categorize-html","245","790716","0.0-6.0-206.0","75394","20222311","common"
"723.5","false","fever","76","90,76","C","","","","test","103","true","","categorize-html","247","792946","0.0-6.0-208.0","75394","20222311","rare"
"589.0999999046326","false","rash","90","90,76","B","","","","test","104","true","","categorize-html","249","795043","0.0-6.0-210.0","75394","20222311","common"
"669.2999999523163","false","headache","90","90,76","A","","","","test","105","true","","categorize-html","251","797217","0.0-6.0-212.0","75394","20222311","common"
"873","false","rash,fever","76","90,76","B","C","","","test","106","true","","categorize-html","253","799599","0.0-6.0-214.0","75394","20222311","rare"
"544.0999999046326","false","fever","76","90,76","C","","","","test","107","true","","categorize-html","255","801654","0.0-6.0-216.0","75394","20222311","rare"
"1475.7999999523163","false","headache,rash","90","90,76","A","B","","","test","108","true","","categorize-html","257","804640","0.0-6.0-218.0","75394","20222311","common"
"833.6999998092651","false","headache,rash","90","90,76","A","B","","","test","109","true","","categorize-html","259","806978","0.0-6.0-220.0","75394","20222311","common"
"783.9000000953674","false","fever","76","90,76","C","","","","test","110","true","","categorize-html","261","809268","0.0-6.0-222.0","75394","20222311","rare"
"2335.600000143051","false","fever","76","90,76","C","","","","test","111","true","","categorize-html","263","813109","0.0-6.0-224.0","75394","20222311","rare"
"603.0999999046326","false","rash,fever","76","90,76","B","C","","","test","112","true","","categorize-html","265","815219","0.0-6.0-226.0","75394","20222311","rare"
"690.1999998092651","false","headache","90","90,76","A","","","","test","113","true","","categorize-html","267","817421","0.0-6.0-228.0","75394","20222311","common"
"1480.1000001430511","false","rash,headache","90","90,76","B","A","","","test","114","true","","categorize-html","269","820412","0.0-6.0-230.0","75394","20222311","common"
"2284.600000143051","false","headache","90","90,76","A","","","","test","115","true","","categorize-html","271","824205","0.0-6.0-232.0","75394","20222311","common"
"3105.7999999523163","false","fever,rash","76","90,76","C","B","","","test","116","true","","categorize-html","273","828822","0.0-6.0-234.0","75394","20222311","rare"
"1185.9000000953674","false","rash","90","90,76","B","","","","test","117","true","","categorize-html","275","831514","0.0-6.0-236.0","75394","20222311","common"
"1283.3000001907349","false","fever,headache","76","90,76","C","A","","","test","118","true","","categorize-html","277","834306","0.0-6.0-238.0","75394","20222311","rare"
"812.9000000953674","false","headache,fever","76","90,76","A","C","","","test","119","true","","categorize-html","279","836625","0.0-6.0-240.0","75394","20222311","rare"
"749.9000000953674","false","rash","90","90,76","B","","","","test","120","true","","categorize-html","281","838886","0.0-6.0-242.0","75394","20222311","common"
