"rt","correct","stimulus","key_press","keys","symptom1","symptom2","key","category","phase","trial","include","block","trial_type","trial_index","time_elapsed","internal_node_id","ppt","session","abresp"
"null","false","fever,headache","null","76,90","B","A","76","common","training","1","true","1","categorize-html","4","152787","0.0-4.0-0.0","76117","20222717","none"
"null","false","headache,rash","null","76,90","A","C","90","rare","training","2","true","1","categorize-html","6","158811","0.0-4.0-2.0","76117","20222717","none"
"2866.5999999046326","false","rash,headache","32","76,90","C","A","90","rare","training","3","true","1","categorize-html","8","162687","0.0-4.0-4.0","76117","20222717","none"
"3274.1999999284744","false","fever,headache","32","76,90","B","A","76","common","training","4","true","1","categorize-html","10","166970","0.0-4.0-6.0","76117","20222717","none"
"2186.399999976158","false","headache,fever","32","76,90","A","B","76","common","training","5","true","1","categorize-html","12","170177","0.0-4.0-8.0","76117","20222717","none"
"1733.2999999523163","false","fever,headache","32","76,90","B","A","76","common","training","6","true","1","categorize-html","14","172928","0.0-4.0-10.0","76117","20222717","none"
"1980.3999999761581","false","headache,fever","32","76,90","A","B","76","common","training","7","true","1","categorize-html","16","175926","0.0-4.0-12.0","76117","20222717","none"
"1021.8999999761581","false","headache,fever","32","76,90","A","B","76","common","training","8","true","1","categorize-html","18","177962","0.0-4.0-14.0","76117","20222717","none"
"1753.1999999284744","false","headache,fever","32","76,90","A","B","76","common","training","9","true","2","categorize-html","21","206951","0.0-4.0-17.0","76117","20222717","none"
"1497.6000000238419","false","fever,headache","32","76,90","B","A","76","common","training","10","true","2","categorize-html","23","209457","0.0-4.0-19.0","76117","20222717","none"
"1918.1999999284744","false","fever,headache","32","76,90","B","A","76","common","training","11","true","2","categorize-html","25","212390","0.0-4.0-21.0","76117","20222717","none"
"2147.600000023842","false","headache,fever","32","76,90","A","B","76","common","training","12","true","2","categorize-html","27","215547","0.0-4.0-23.0","76117","20222717","none"
"2213.5999999046326","false","fever,headache","32","76,90","B","A","76","common","training","13","true","2","categorize-html","29","218777","0.0-4.0-25.0","76117","20222717","none"
"1567.8999999761581","false","headache,fever","32","76,90","A","B","76","common","training","14","true","2","categorize-html","31","221352","0.0-4.0-27.0","76117","20222717","none"
"1933.6000000238419","false","rash,headache","32","76,90","C","A","90","rare","training","15","true","2","categorize-html","33","224309","0.0-4.0-29.0","76117","20222717","none"
"1458.8999999761581","false","headache,rash","32","76,90","A","C","90","rare","training","16","true","2","categorize-html","35","226786","0.0-4.0-31.0","76117","20222717","none"
"7646.700000047684","false","fever","76","76,90","B","","","","test","1","true","","categorize-html","39","335354","0.0-6.0-0.0","76117","20222717","common"
"null","false","headache","null","76,90","A","","","","test","2","true","","categorize-html","41","346881","0.0-6.0-2.0","76117","20222717","none"
"2796.5","false","fever","76","76,90","B","","","","test","3","true","","categorize-html","43","351197","0.0-6.0-4.0","76117","20222717","common"
"2272","false","headache,rash","90","76,90","A","C","","","test","4","true","","categorize-html","45","354988","0.0-6.0-6.0","76117","20222717","rare"
"2557.1999999284744","false","rash,fever","90","76,90","C","B","","","test","5","true","","categorize-html","47","359058","0.0-6.0-8.0","76117","20222717","rare"
"2037.8999999761581","false","fever,rash","90","76,90","B","C","","","test","6","true","","categorize-html","49","362615","0.0-6.0-10.0","76117","20222717","rare"
"1899.3999999761581","false","rash","90","76,90","C","","","","test","7","true","","categorize-html","51","366026","0.0-6.0-12.0","76117","20222717","rare"
"1964.7999999523163","false","fever,headache","76","76,90","B","A","","","test","8","true","","categorize-html","53","369512","0.0-6.0-14.0","76117","20222717","common"
"1663.6000000238419","false","rash","90","76,90","C","","","","test","9","true","","categorize-html","55","372683","0.0-6.0-16.0","76117","20222717","rare"
"1652","false","headache,fever","76","76,90","A","B","","","test","10","true","","categorize-html","57","375859","0.0-6.0-18.0","76117","20222717","common"
"1589","false","headache","76","76,90","A","","","","test","11","true","","categorize-html","59","378959","0.0-6.0-20.0","76117","20222717","common"
"2492.899999976158","false","rash,headache","90","76,90","C","A","","","test","12","true","","categorize-html","61","382974","0.0-6.0-22.0","76117","20222717","rare"
"1320.8999999761581","false","headache,rash","90","76,90","A","C","","","test","13","true","","categorize-html","63","385803","0.0-6.0-24.0","76117","20222717","rare"
"1774.8999999761581","false","headache","76","76,90","A","","","","test","14","true","","categorize-html","65","389092","0.0-6.0-26.0","76117","20222717","common"
"1287.6000000238419","false","rash,headache","90","76,90","C","A","","","test","15","true","","categorize-html","67","391899","0.0-6.0-28.0","76117","20222717","rare"
"1684.3999999761581","false","headache,fever","76","76,90","A","B","","","test","16","true","","categorize-html","69","395096","0.0-6.0-30.0","76117","20222717","common"
"1581.1999999284744","false","rash","90","76,90","C","","","","test","17","true","","categorize-html","71","398194","0.0-6.0-32.0","76117","20222717","rare"
"2350.0999999046326","false","headache","76","76,90","A","","","","test","18","true","","categorize-html","73","402075","0.0-6.0-34.0","76117","20222717","common"
"2257.2000000476837","false","rash","90","76,90","C","","","","test","19","true","","categorize-html","75","405858","0.0-6.0-36.0","76117","20222717","rare"
"5130.300000071526","false","fever,rash","90","76,90","B","C","","","test","20","true","","categorize-html","77","412508","0.0-6.0-38.0","76117","20222717","rare"
"3266.2999999523163","false","rash,fever","76","76,90","C","B","","","test","21","true","","categorize-html","79","417295","0.0-6.0-40.0","76117","20222717","common"
"3012.399999976158","false","fever,headache","76","76,90","B","A","","","test","22","true","","categorize-html","81","421819","0.0-6.0-42.0","76117","20222717","common"
"1230.2000000476837","false","fever","76","76,90","B","","","","test","23","true","","categorize-html","83","424569","0.0-6.0-44.0","76117","20222717","common"
"701.3999999761581","false","fever","76","76,90","B","","","","test","24","true","","categorize-html","85","426800","0.0-6.0-46.0","76117","20222717","common"
"1306.6999999284744","false","headache","76","76,90","A","","","","test","25","true","","categorize-html","88","435896","0.0-6.0-49.0","76117","20222717","common"
"2792.9000000953674","false","rash,fever","90","76,90","C","B","","","test","26","true","","categorize-html","90","440195","0.0-6.0-51.0","76117","20222717","rare"
"1209.3999999761581","false","fever","76","76,90","B","","","","test","27","true","","categorize-html","92","442913","0.0-6.0-53.0","76117","20222717","common"
"3295.399999976158","false","fever,rash","90","76,90","B","C","","","test","28","true","","categorize-html","94","447725","0.0-6.0-55.0","76117","20222717","rare"
"1420.5","false","rash","90","76,90","C","","","","test","29","true","","categorize-html","96","450662","0.0-6.0-57.0","76117","20222717","rare"
"1569.1999999284744","false","fever","76","76,90","B","","","","test","30","true","","categorize-html","98","453744","0.0-6.0-59.0","76117","20222717","common"
"1065.5","false","fever,headache","76","76,90","B","A","","","test","31","true","","categorize-html","100","456326","0.0-6.0-61.0","76117","20222717","common"
"1198.8999999761581","false","headache,rash","90","76,90","A","C","","","test","32","true","","categorize-html","102","459049","0.0-6.0-63.0","76117","20222717","rare"
"2959.100000023842","false","rash,headache","90","76,90","C","A","","","test","33","true","","categorize-html","104","463526","0.0-6.0-65.0","76117","20222717","rare"
"1115.6999999284744","false","headache,fever","76","76,90","A","B","","","test","34","true","","categorize-html","106","466163","0.0-6.0-67.0","76117","20222717","common"
"1475.5999999046326","false","headache","76","76,90","A","","","","test","35","true","","categorize-html","108","469150","0.0-6.0-69.0","76117","20222717","common"
"1530.7999999523163","false","rash","90","76,90","C","","","","test","36","true","","categorize-html","110","472196","0.0-6.0-71.0","76117","20222717","rare"
"960.2000000476837","false","headache,fever","76","76,90","A","B","","","test","37","true","","categorize-html","112","474673","0.0-6.0-73.0","76117","20222717","common"
"1204.6000000238419","false","headache","76","76,90","A","","","","test","38","true","","categorize-html","114","477399","0.0-6.0-75.0","76117","20222717","common"
"3523.399999976158","false","headache,rash","90","76,90","A","C","","","test","39","true","","categorize-html","116","482435","0.0-6.0-77.0","76117","20222717","rare"
"1823.7999999523163","false","rash,fever","90","76,90","C","B","","","test","40","true","","categorize-html","118","485768","0.0-6.0-79.0","76117","20222717","rare"
"3318.8000000715256","false","rash,headache","90","76,90","C","A","","","test","41","true","","categorize-html","120","490609","0.0-6.0-81.0","76117","20222717","rare"
"1776.8999999761581","false","fever,headache","76","76,90","B","A","","","test","42","true","","categorize-html","122","493898","0.0-6.0-83.0","76117","20222717","common"
"2596.600000023842","false","fever","76","76,90","B","","","","test","43","true","","categorize-html","124","498003","0.0-6.0-85.0","76117","20222717","common"
"1080.1999999284744","false","headache","76","76,90","A","","","","test","44","true","","categorize-html","126","500605","0.0-6.0-87.0","76117","20222717","common"
"887","false","rash","90","76,90","C","","","","test","45","true","","categorize-html","128","503006","0.0-6.0-89.0","76117","20222717","rare"
"703.7999999523163","false","fever","90","76,90","B","","","","test","46","true","","categorize-html","130","505230","0.0-6.0-91.0","76117","20222717","rare"
"1348.6999999284744","false","rash","90","76,90","C","","","","test","47","true","","categorize-html","132","508086","0.0-6.0-93.0","76117","20222717","rare"
"4608.199999928474","false","fever,rash","76","76,90","B","C","","","test","48","true","","categorize-html","134","514202","0.0-6.0-95.0","76117","20222717","common"
"1943.2999999523163","false","fever","76","76,90","B","","","","test","49","true","","categorize-html","137","519709","0.0-6.0-98.0","76117","20222717","common"
"851.2000000476837","false","rash","90","76,90","C","","","","test","50","true","","categorize-html","139","522074","0.0-6.0-100.0","76117","20222717","rare"
"520.7000000476837","false","rash","90","76,90","C","","","","test","51","true","","categorize-html","141","524101","0.0-6.0-102.0","76117","20222717","rare"
"1159.5","false","headache,fever","76","76,90","A","B","","","test","52","true","","categorize-html","143","526780","0.0-6.0-104.0","76117","20222717","common"
"1254.5","false","fever,headache","76","76,90","B","A","","","test","53","true","","categorize-html","145","529544","0.0-6.0-106.0","76117","20222717","common"
"824.5","false","fever","76","76,90","B","","","","test","54","true","","categorize-html","147","531880","0.0-6.0-108.0","76117","20222717","common"
"1036.7000000476837","false","headache","76","76,90","A","","","","test","55","true","","categorize-html","149","534432","0.0-6.0-110.0","76117","20222717","common"
"599.6999999284744","false","headache","76","76,90","A","","","","test","56","true","","categorize-html","151","536543","0.0-6.0-112.0","76117","20222717","common"
"1056.4000000953674","false","fever,rash","90","76,90","B","C","","","test","57","true","","categorize-html","153","539107","0.0-6.0-114.0","76117","20222717","rare"
"770.6000000238419","false","rash,headache","90","76,90","C","A","","","test","58","true","","categorize-html","155","541396","0.0-6.0-116.0","76117","20222717","rare"
"730.6000000238419","false","headache,rash","90","76,90","A","C","","","test","59","true","","categorize-html","157","543634","0.0-6.0-118.0","76117","20222717","rare"
"1813.3999999761581","false","rash,fever","90","76,90","C","B","","","test","60","true","","categorize-html","159","546957","0.0-6.0-120.0","76117","20222717","rare"
"1838.1000000238419","false","fever","76","76,90","B","","","","test","61","true","","categorize-html","161","550305","0.0-6.0-122.0","76117","20222717","common"
"2303.2000000476837","false","fever,rash","90","76,90","B","C","","","test","62","true","","categorize-html","163","554126","0.0-6.0-124.0","76117","20222717","rare"
"988.7000000476837","false","rash,headache","90","76,90","C","A","","","test","63","true","","categorize-html","165","556632","0.0-6.0-126.0","76117","20222717","rare"
"2657.1999999284744","false","headache,fever","76","76,90","A","B","","","test","64","true","","categorize-html","167","560806","0.0-6.0-128.0","76117","20222717","common"
"704.1000000238419","false","headache","76","76,90","A","","","","test","65","true","","categorize-html","169","563017","0.0-6.0-130.0","76117","20222717","common"
"859.2999999523163","false","rash","90","76,90","C","","","","test","66","true","","categorize-html","171","565388","0.0-6.0-132.0","76117","20222717","rare"
"1894.1000000238419","false","headache","76","76,90","A","","","","test","67","true","","categorize-html","173","568802","0.0-6.0-134.0","76117","20222717","common"
"2301.1999999284744","false","fever","76","76,90","B","","","","test","68","true","","categorize-html","175","572624","0.0-6.0-136.0","76117","20222717","common"
"1050.7999999523163","false","fever,headache","76","76,90","B","A","","","test","69","true","","categorize-html","177","575192","0.0-6.0-138.0","76117","20222717","common"
"1496.2000000476837","false","rash,fever","90","76,90","C","B","","","test","70","true","","categorize-html","179","578204","0.0-6.0-140.0","76117","20222717","rare"
"1433.2000000476837","false","headache,rash","90","76,90","A","C","","","test","71","true","","categorize-html","181","581152","0.0-6.0-142.0","76117","20222717","rare"
"475.2999999523163","false","rash","90","76,90","C","","","","test","72","true","","categorize-html","183","583139","0.0-6.0-144.0","76117","20222717","rare"
"1485.7999999523163","false","headache","76","76,90","A","","","","test","73","true","","categorize-html","186","591189","0.0-6.0-147.0","76117","20222717","common"
"591.6999999284744","false","headache","76","76,90","A","","","","test","74","true","","categorize-html","188","593292","0.0-6.0-149.0","76117","20222717","common"
"1663.2000000476837","false","fever,rash","90","76,90","B","C","","","test","75","true","","categorize-html","190","596464","0.0-6.0-151.0","76117","20222717","rare"
"744.6000000238419","false","fever","76","76,90","B","","","","test","76","true","","categorize-html","192","598723","0.0-6.0-153.0","76117","20222717","common"
"1504.5","false","rash,headache","90","76,90","C","A","","","test","77","true","","categorize-html","194","601734","0.0-6.0-155.0","76117","20222717","rare"
"917.8999999761581","false","headache,rash","90","76,90","A","C","","","test","78","true","","categorize-html","196","604166","0.0-6.0-157.0","76117","20222717","rare"
"985.3000000715256","false","rash","90","76,90","C","","","","test","79","true","","categorize-html","198","606672","0.0-6.0-159.0","76117","20222717","rare"
"1285.3999999761581","false","headache,fever","76","76,90","A","B","","","test","80","true","","categorize-html","200","609474","0.0-6.0-161.0","76117","20222717","common"
"1473.3999999761581","false","rash,fever","90","76,90","C","B","","","test","81","true","","categorize-html","202","612454","0.0-6.0-163.0","76117","20222717","rare"
"1231.5","false","fever,headache","76","76,90","B","A","","","test","82","true","","categorize-html","204","615210","0.0-6.0-165.0","76117","20222717","common"
"550.1000000238419","false","fever","76","76,90","B","","","","test","83","true","","categorize-html","206","617281","0.0-6.0-167.0","76117","20222717","common"
"930.6000000238419","false","rash","90","76,90","C","","","","test","84","true","","categorize-html","208","619724","0.0-6.0-169.0","76117","20222717","rare"
"1190.7000000476837","false","fever","76","76,90","B","","","","test","85","true","","categorize-html","210","622435","0.0-6.0-171.0","76117","20222717","common"
"1109.1000000238419","false","headache","76","76,90","A","","","","test","86","true","","categorize-html","212","625063","0.0-6.0-173.0","76117","20222717","common"
"1210.6999999284744","false","rash,headache","90","76,90","C","A","","","test","87","true","","categorize-html","214","627793","0.0-6.0-175.0","76117","20222717","rare"
"1395.7999999523163","false","headache","76","76,90","A","","","","test","88","true","","categorize-html","216","630703","0.0-6.0-177.0","76117","20222717","common"
"1272.5","false","headache,rash","90","76,90","A","C","","","test","89","true","","categorize-html","218","633491","0.0-6.0-179.0","76117","20222717","rare"
"815.8999999761581","false","fever,rash","90","76,90","B","C","","","test","90","true","","categorize-html","220","635826","0.0-6.0-181.0","76117","20222717","rare"
"2165.7000000476837","false","headache,fever","76","76,90","A","B","","","test","91","true","","categorize-html","222","639506","0.0-6.0-183.0","76117","20222717","common"
"2176.4000000953674","false","rash","90","76,90","C","","","","test","92","true","","categorize-html","224","643194","0.0-6.0-185.0","76117","20222717","rare"
"645","false","rash","90","76,90","C","","","","test","93","true","","categorize-html","226","645358","0.0-6.0-187.0","76117","20222717","rare"
"879","false","rash,fever","90","76,90","C","B","","","test","94","true","","categorize-html","228","647753","0.0-6.0-189.0","76117","20222717","rare"
"1284.8999999761581","false","fever,headache","76","76,90","B","A","","","test","95","true","","categorize-html","230","650568","0.0-6.0-191.0","76117","20222717","common"
"947.1999999284744","false","fever","76","76,90","B","","","","test","96","true","","categorize-html","232","653032","0.0-6.0-193.0","76117","20222717","common"
"986.1000000238419","false","rash","90","76,90","C","","","","test","97","true","","categorize-html","235","660004","0.0-6.0-196.0","76117","20222717","rare"
"513.6000000238419","false","rash","90","76,90","C","","","","test","98","true","","categorize-html","237","662040","0.0-6.0-198.0","76117","20222717","rare"
"881.6999999284744","false","fever,rash","90","76,90","B","C","","","test","99","true","","categorize-html","239","664437","0.0-6.0-200.0","76117","20222717","rare"
"1025.5","false","headache","76","76,90","A","","","","test","100","true","","categorize-html","241","666973","0.0-6.0-202.0","76117","20222717","common"
"1118.3999999761581","false","rash,headache","90","76,90","C","A","","","test","101","true","","categorize-html","243","669603","0.0-6.0-204.0","76117","20222717","rare"
"690.3999999761581","false","rash,fever","90","76,90","C","B","","","test","102","true","","categorize-html","245","671816","0.0-6.0-206.0","76117","20222717","rare"
"1249.8999999761581","false","fever,headache","76","76,90","B","A","","","test","103","true","","categorize-html","247","674579","0.0-6.0-208.0","76117","20222717","common"
"3119.899999976158","false","fever","76","76,90","B","","","","test","104","true","","categorize-html","249","679221","0.0-6.0-210.0","76117","20222717","common"
"1053.2999999523163","false","headache,rash","90","76,90","A","C","","","test","105","true","","categorize-html","251","681799","0.0-6.0-212.0","76117","20222717","rare"
"888.5","false","fever","76","76,90","B","","","","test","106","true","","categorize-html","253","684210","0.0-6.0-214.0","76117","20222717","common"
"1793.7999999523163","false","headache,fever","76","76,90","A","B","","","test","107","true","","categorize-html","255","687512","0.0-6.0-216.0","76117","20222717","common"
"1184.2000000476837","false","headache","76","76,90","A","","","","test","108","true","","categorize-html","257","690209","0.0-6.0-218.0","76117","20222717","common"
"706.2000000476837","false","rash,fever","90","76,90","C","B","","","test","109","true","","categorize-html","259","692434","0.0-6.0-220.0","76117","20222717","rare"
"683","false","headache","76","76,90","A","","","","test","110","true","","categorize-html","261","694624","0.0-6.0-222.0","76117","20222717","common"
"850","false","fever,headache","76","76,90","B","A","","","test","111","true","","categorize-html","263","696993","0.0-6.0-224.0","76117","20222717","common"
"1464.7999999523163","false","rash,headache","90","76,90","C","A","","","test","112","true","","categorize-html","265","699976","0.0-6.0-226.0","76117","20222717","rare"
"910.0999999046326","false","rash","90","76,90","C","","","","test","113","true","","categorize-html","267","702408","0.0-6.0-228.0","76117","20222717","rare"
"1776.2999999523163","false","headache,rash","90","76,90","A","C","","","test","114","true","","categorize-html","269","705696","0.0-6.0-230.0","76117","20222717","rare"
"1620.8999999761581","false","headache,fever","76","76,90","A","B","","","test","115","true","","categorize-html","271","708830","0.0-6.0-232.0","76117","20222717","common"
"749.8999999761581","false","fever","76","76,90","B","","","","test","116","true","","categorize-html","273","711103","0.0-6.0-234.0","76117","20222717","common"
"609.5","false","rash","90","76,90","C","","","","test","117","true","","categorize-html","275","713237","0.0-6.0-236.0","76117","20222717","rare"
"2137.7000000476837","false","fever,rash","90","76,90","B","C","","","test","118","true","","categorize-html","277","716884","0.0-6.0-238.0","76117","20222717","rare"
"1400.5","false","headache","76","76,90","A","","","","test","119","true","","categorize-html","279","719794","0.0-6.0-240.0","76117","20222717","common"
"3583.2999999523163","false","fever","76","76,90","B","","","","test","120","true","","categorize-html","281","724895","0.0-6.0-242.0","76117","20222717","common"
