"rt","correct","stimulus","key_press","keys","symptom1","symptom2","key","category","phase","trial","include","block","trial_type","trial_index","time_elapsed","internal_node_id","ppt","session","abresp"
"null","false","fever,rash","null","90,76","A","C","76","rare","training","1","true","1","categorize-html","4","129889","0.0-4.0-0.0","k345nca","202202622","none"
"3427.599999964237","false","headache,fever","32","90,76","B","A","90","common","training","2","true","1","categorize-html","6","134320","0.0-4.0-2.0","k345nca","202202622","none"
"2235.2999999523163","false","headache,fever","32","90,76","B","A","90","common","training","3","true","1","categorize-html","8","137566","0.0-4.0-4.0","k345nca","202202622","none"
"3797.199999988079","false","fever,headache","32","90,76","A","B","90","common","training","4","true","1","categorize-html","10","142368","0.0-4.0-6.0","k345nca","202202622","none"
"2466.100000023842","false","headache,fever","32","90,76","B","A","90","common","training","5","true","1","categorize-html","12","145839","0.0-4.0-8.0","k345nca","202202622","none"
"3097","false","rash,fever","32","90,76","C","A","76","rare","training","6","true","1","categorize-html","14","149939","0.0-4.0-10.0","k345nca","202202622","none"
"1647","false","fever,headache","32","90,76","A","B","90","common","training","7","true","1","categorize-html","16","152591","0.0-4.0-12.0","k345nca","202202622","none"
"1226.800000011921","false","fever,headache","32","90,76","A","B","90","common","training","8","true","1","categorize-html","18","154825","0.0-4.0-14.0","k345nca","202202622","none"
"null","false","headache,fever","null","90,76","B","A","90","common","training","9","true","2","categorize-html","21","168221","0.0-4.0-17.0","k345nca","202202622","none"
"2248.199999988079","false","fever,headache","32","90,76","A","B","90","common","training","10","true","2","categorize-html","23","171477","0.0-4.0-19.0","k345nca","202202622","none"
"1896.699999988079","false","fever,headache","32","90,76","A","B","90","common","training","11","true","2","categorize-html","25","174382","0.0-4.0-21.0","k345nca","202202622","none"
"1697.199999988079","false","rash,fever","32","90,76","C","A","76","rare","training","12","true","2","categorize-html","27","177087","0.0-4.0-23.0","k345nca","202202622","none"
"1222.9000000357628","false","headache,fever","32","90,76","B","A","90","common","training","13","true","2","categorize-html","29","179316","0.0-4.0-25.0","k345nca","202202622","none"
"3862","false","fever,rash","32","90,76","A","C","76","rare","training","14","true","2","categorize-html","31","184184","0.0-4.0-27.0","k345nca","202202622","none"
"1126.6000000238419","false","headache,fever","32","90,76","B","A","90","common","training","15","true","2","categorize-html","33","186318","0.0-4.0-29.0","k345nca","202202622","none"
"2215.399999976158","false","fever,headache","32","90,76","A","B","90","common","training","16","true","2","categorize-html","35","189543","0.0-4.0-31.0","k345nca","202202622","none"
"4322.100000023842","false","headache","90","90,76","B","","","","test","1","true","","categorize-html","39","234306","0.0-6.0-0.0","k345nca","202202622","common"
"3846.100000023842","false","headache,fever","90","90,76","B","A","","","test","2","true","","categorize-html","41","239658","0.0-6.0-2.0","k345nca","202202622","common"
"3426.300000011921","false","headache","76","90,76","B","","","","test","3","true","","categorize-html","43","244596","0.0-6.0-4.0","k345nca","202202622","rare"
"1791.6000000238419","false","headache,rash","76","90,76","B","C","","","test","4","true","","categorize-html","45","247898","0.0-6.0-6.0","k345nca","202202622","rare"
"3355.399999976158","false","rash,fever","76","90,76","C","A","","","test","5","true","","categorize-html","47","252759","0.0-6.0-8.0","k345nca","202202622","rare"
"3708.800000011921","false","fever,headache","90","90,76","A","B","","","test","6","true","","categorize-html","49","257978","0.0-6.0-10.0","k345nca","202202622","common"
"2602.5","false","fever","76","90,76","A","","","","test","7","true","","categorize-html","51","262091","0.0-6.0-12.0","k345nca","202202622","rare"
"1457.300000011921","false","rash","76","90,76","C","","","","test","8","true","","categorize-html","53","265054","0.0-6.0-14.0","k345nca","202202622","rare"
"2803","false","rash,headache","76","90,76","C","B","","","test","9","true","","categorize-html","55","269366","0.0-6.0-16.0","k345nca","202202622","rare"
"966.8000000119209","false","rash","76","90,76","C","","","","test","10","true","","categorize-html","57","271845","0.0-6.0-18.0","k345nca","202202622","rare"
"2605.400000035763","false","fever","90","90,76","A","","","","test","11","true","","categorize-html","59","275954","0.0-6.0-20.0","k345nca","202202622","common"
"2215","false","fever,rash","76","90,76","A","C","","","test","12","true","","categorize-html","61","279680","0.0-6.0-22.0","k345nca","202202622","rare"
"1948.699999988079","false","rash,headache","76","90,76","C","B","","","test","13","true","","categorize-html","63","283140","0.0-6.0-24.0","k345nca","202202622","rare"
"1565.199999988079","false","headache","90","90,76","B","","","","test","14","true","","categorize-html","65","286216","0.0-6.0-26.0","k345nca","202202622","common"
"1323.699999988079","false","fever,headache","90","90,76","A","B","","","test","15","true","","categorize-html","67","289050","0.0-6.0-28.0","k345nca","202202622","common"
"2756.199999988079","false","rash","76","90,76","C","","","","test","16","true","","categorize-html","69","293315","0.0-6.0-30.0","k345nca","202202622","rare"
"1630.300000011921","false","headache,rash","76","90,76","B","C","","","test","17","true","","categorize-html","71","296457","0.0-6.0-32.0","k345nca","202202622","rare"
"1066.800000011921","false","headache,fever","90","90,76","B","A","","","test","18","true","","categorize-html","73","299030","0.0-6.0-34.0","k345nca","202202622","common"
"3073.199999988079","false","fever","90","90,76","A","","","","test","19","true","","categorize-html","75","303611","0.0-6.0-36.0","k345nca","202202622","common"
"1325","false","fever,rash","76","90,76","A","C","","","test","20","true","","categorize-html","77","306448","0.0-6.0-38.0","k345nca","202202622","rare"
"832.4000000357628","false","fever","76","90,76","A","","","","test","21","true","","categorize-html","79","308790","0.0-6.0-40.0","k345nca","202202622","rare"
"991.4000000357628","false","rash","76","90,76","C","","","","test","22","true","","categorize-html","81","311293","0.0-6.0-42.0","k345nca","202202622","rare"
"1304.3999999761581","false","headache","90","90,76","B","","","","test","23","true","","categorize-html","83","314106","0.0-6.0-44.0","k345nca","202202622","common"
"1509.5999999642372","false","rash,fever","76","90,76","C","A","","","test","24","true","","categorize-html","85","317124","0.0-6.0-46.0","k345nca","202202622","rare"
"3260.099999964237","false","fever","90","90,76","A","","","","test","25","true","","categorize-html","88","327607","0.0-6.0-49.0","k345nca","202202622","common"
"1893.699999988079","false","rash","76","90,76","C","","","","test","26","true","","categorize-html","90","331007","0.0-6.0-51.0","k345nca","202202622","rare"
"1211.800000011921","false","headache,fever","90","90,76","B","A","","","test","27","true","","categorize-html","92","333729","0.0-6.0-53.0","k345nca","202202622","common"
"1476.199999988079","false","rash","76","90,76","C","","","","test","28","true","","categorize-html","94","336716","0.0-6.0-55.0","k345nca","202202622","rare"
"3284.600000023842","false","headache,rash","76","90,76","B","C","","","test","29","true","","categorize-html","96","341510","0.0-6.0-57.0","k345nca","202202622","rare"
"7561.699999988079","false","rash,fever","76","90,76","C","A","","","test","30","true","","categorize-html","98","350582","0.0-6.0-59.0","k345nca","202202622","rare"
"1097.800000011921","false","headache","90","90,76","B","","","","test","31","true","","categorize-html","100","353190","0.0-6.0-61.0","k345nca","202202622","common"
"882.8000000119209","false","fever","76","90,76","A","","","","test","32","true","","categorize-html","102","355585","0.0-6.0-63.0","k345nca","202202622","rare"
"1031.0999999642372","false","headache","90","90,76","B","","","","test","33","true","","categorize-html","104","358125","0.0-6.0-65.0","k345nca","202202622","common"
"2527.5","false","fever,headache","90","90,76","A","B","","","test","34","true","","categorize-html","106","362160","0.0-6.0-67.0","k345nca","202202622","common"
"1374.5","false","rash,headache","76","90,76","C","B","","","test","35","true","","categorize-html","108","365045","0.0-6.0-69.0","k345nca","202202622","rare"
"3342.899999976158","false","fever,rash","76","90,76","A","C","","","test","36","true","","categorize-html","110","369899","0.0-6.0-71.0","k345nca","202202622","rare"
"2708.7999999523163","false","rash,headache","76","90,76","C","B","","","test","37","true","","categorize-html","112","374114","0.0-6.0-73.0","k345nca","202202622","rare"
"1235.699999988079","false","fever,headache","90","90,76","A","B","","","test","38","true","","categorize-html","114","376859","0.0-6.0-75.0","k345nca","202202622","common"
"954.9000000357628","false","headache","76","90,76","B","","","","test","39","true","","categorize-html","116","379322","0.0-6.0-77.0","k345nca","202202622","rare"
"723.7999999523163","false","rash","76","90,76","C","","","","test","40","true","","categorize-html","118","381558","0.0-6.0-79.0","k345nca","202202622","rare"
"2148.400000035763","false","fever","76","90,76","A","","","","test","41","true","","categorize-html","120","385218","0.0-6.0-81.0","k345nca","202202622","rare"
"1471.6000000238419","false","headache","76","90,76","B","","","","test","42","true","","categorize-html","122","388199","0.0-6.0-83.0","k345nca","202202622","rare"
"1288.300000011921","false","rash,fever","76","90,76","C","A","","","test","43","true","","categorize-html","124","390995","0.0-6.0-85.0","k345nca","202202622","rare"
"1044.4000000357628","false","fever","76","90,76","A","","","","test","44","true","","categorize-html","126","393546","0.0-6.0-87.0","k345nca","202202622","rare"
"1273.3999999761581","false","fever,rash","76","90,76","A","C","","","test","45","true","","categorize-html","128","396331","0.0-6.0-89.0","k345nca","202202622","rare"
"1262.199999988079","false","headache,rash","76","90,76","B","C","","","test","46","true","","categorize-html","130","399101","0.0-6.0-91.0","k345nca","202202622","rare"
"1053.2999999523163","false","rash","76","90,76","C","","","","test","47","true","","categorize-html","132","401665","0.0-6.0-93.0","k345nca","202202622","rare"
"1153.5","false","headache,fever","90","90,76","B","A","","","test","48","true","","categorize-html","134","404326","0.0-6.0-95.0","k345nca","202202622","common"
"1079.2000000476837","false","rash,fever","76","90,76","C","A","","","test","49","true","","categorize-html","137","408787","0.0-6.0-98.0","k345nca","202202622","rare"
"1223.5","false","fever,headache","90","90,76","A","B","","","test","50","true","","categorize-html","139","411520","0.0-6.0-100.0","k345nca","202202622","common"
"1157.7000000476837","false","fever,rash","76","90,76","A","C","","","test","51","true","","categorize-html","141","414188","0.0-6.0-102.0","k345nca","202202622","rare"
"1044.8999999761581","false","rash","76","90,76","C","","","","test","52","true","","categorize-html","143","416744","0.0-6.0-104.0","k345nca","202202622","rare"
"3858.400000035763","false","rash,headache","76","90,76","C","B","","","test","53","true","","categorize-html","145","422111","0.0-6.0-106.0","k345nca","202202622","rare"
"2383.400000035763","false","fever","90","90,76","A","","","","test","54","true","","categorize-html","147","426004","0.0-6.0-108.0","k345nca","202202622","common"
"766.7999999523163","false","fever","90","90,76","A","","","","test","55","true","","categorize-html","149","428282","0.0-6.0-110.0","k345nca","202202622","common"
"1086.800000011921","false","headache,rash","76","90,76","B","C","","","test","56","true","","categorize-html","151","430876","0.0-6.0-112.0","k345nca","202202622","rare"
"1459.1000000238419","false","headache","90","90,76","B","","","","test","57","true","","categorize-html","153","433846","0.0-6.0-114.0","k345nca","202202622","common"
"923","false","headache","90","90,76","B","","","","test","58","true","","categorize-html","155","436280","0.0-6.0-116.0","k345nca","202202622","common"
"1094.7999999523163","false","headache,fever","90","90,76","B","A","","","test","59","true","","categorize-html","157","438883","0.0-6.0-118.0","k345nca","202202622","common"
"1368.8999999761581","false","rash","76","90,76","C","","","","test","60","true","","categorize-html","159","441759","0.0-6.0-120.0","k345nca","202202622","rare"
"1009.8999999761581","false","headache","90","90,76","B","","","","test","61","true","","categorize-html","161","444277","0.0-6.0-122.0","k345nca","202202622","common"
"936.6000000238419","false","fever,headache","90","90,76","A","B","","","test","62","true","","categorize-html","163","446726","0.0-6.0-124.0","k345nca","202202622","common"
"704.5","false","rash","76","90,76","C","","","","test","63","true","","categorize-html","165","448939","0.0-6.0-126.0","k345nca","202202622","rare"
"1017.6999999880791","false","headache,rash","76","90,76","B","C","","","test","64","true","","categorize-html","167","451463","0.0-6.0-128.0","k345nca","202202622","rare"
"2233.599999964237","false","rash","76","90,76","C","","","","test","65","true","","categorize-html","169","455205","0.0-6.0-130.0","k345nca","202202622","rare"
"1398.0999999642372","false","fever","76","90,76","A","","","","test","66","true","","categorize-html","171","458113","0.0-6.0-132.0","k345nca","202202622","rare"
"927.8000000119209","false","headache","90","90,76","B","","","","test","67","true","","categorize-html","173","460549","0.0-6.0-134.0","k345nca","202202622","common"
"808.8000000119209","false","headache,fever","90","90,76","B","A","","","test","68","true","","categorize-html","175","462867","0.0-6.0-136.0","k345nca","202202622","common"
"836.8000000119209","false","fever","90","90,76","A","","","","test","69","true","","categorize-html","177","465214","0.0-6.0-138.0","k345nca","202202622","common"
"783.6999999880791","false","rash,fever","76","90,76","C","A","","","test","70","true","","categorize-html","179","467506","0.0-6.0-140.0","k345nca","202202622","rare"
"1416.5","false","fever,rash","76","90,76","A","C","","","test","71","true","","categorize-html","181","470431","0.0-6.0-142.0","k345nca","202202622","rare"
"1006.5999999642372","false","rash,headache","76","90,76","C","B","","","test","72","true","","categorize-html","183","472949","0.0-6.0-144.0","k345nca","202202622","rare"
"1809.3999999761581","false","rash","76","90,76","C","","","","test","73","true","","categorize-html","186","477308","0.0-6.0-147.0","k345nca","202202622","rare"
"1015","false","headache","90","90,76","B","","","","test","74","true","","categorize-html","188","479829","0.0-6.0-149.0","k345nca","202202622","common"
"818.7999999523163","false","fever","76","90,76","A","","","","test","75","true","","categorize-html","190","482154","0.0-6.0-151.0","k345nca","202202622","rare"
"987.5","false","headache,rash","76","90,76","B","C","","","test","76","true","","categorize-html","192","484651","0.0-6.0-153.0","k345nca","202202622","rare"
"1419.800000011921","false","fever","76","90,76","A","","","","test","77","true","","categorize-html","194","487580","0.0-6.0-155.0","k345nca","202202622","rare"
"955.3000000119209","false","rash","76","90,76","C","","","","test","78","true","","categorize-html","196","490044","0.0-6.0-157.0","k345nca","202202622","rare"
"1210.8999999761581","false","rash,fever","76","90,76","C","A","","","test","79","true","","categorize-html","198","492765","0.0-6.0-159.0","k345nca","202202622","rare"
"817.5999999642372","false","headache","90","90,76","B","","","","test","80","true","","categorize-html","200","495091","0.0-6.0-161.0","k345nca","202202622","common"
"831.1999999880791","false","headache,fever","90","90,76","B","A","","","test","81","true","","categorize-html","202","497432","0.0-6.0-163.0","k345nca","202202622","common"
"901.3000000119209","false","fever,headache","90","90,76","A","B","","","test","82","true","","categorize-html","204","499842","0.0-6.0-165.0","k345nca","202202622","common"
"873","false","fever,rash","76","90,76","A","C","","","test","83","true","","categorize-html","206","502224","0.0-6.0-167.0","k345nca","202202622","rare"
"1559","false","rash,headache","76","90,76","C","B","","","test","84","true","","categorize-html","208","505292","0.0-6.0-169.0","k345nca","202202622","rare"
"858.5","false","fever,headache","90","90,76","A","B","","","test","85","true","","categorize-html","210","507659","0.0-6.0-171.0","k345nca","202202622","common"
"1074.0999999642372","false","headache,rash","76","90,76","B","C","","","test","86","true","","categorize-html","212","510243","0.0-6.0-173.0","k345nca","202202622","rare"
"905.8000000119209","false","rash,headache","76","90,76","C","B","","","test","87","true","","categorize-html","214","512659","0.0-6.0-175.0","k345nca","202202622","rare"
"1037.2999999523163","false","rash,fever","76","90,76","C","A","","","test","88","true","","categorize-html","216","515207","0.0-6.0-177.0","k345nca","202202622","rare"
"1106.2999999523163","false","headache,fever","90","90,76","B","A","","","test","89","true","","categorize-html","218","517822","0.0-6.0-179.0","k345nca","202202622","common"
"1011.9000000357628","false","headache","90","90,76","B","","","","test","90","true","","categorize-html","220","520345","0.0-6.0-181.0","k345nca","202202622","common"
"953.5","false","fever","76","90,76","A","","","","test","91","true","","categorize-html","222","522810","0.0-6.0-183.0","k345nca","202202622","rare"
"1373.3999999761581","false","rash","76","90,76","C","","","","test","92","true","","categorize-html","224","525692","0.0-6.0-185.0","k345nca","202202622","rare"
"1307.1000000238419","false","fever,rash","76","90,76","A","C","","","test","93","true","","categorize-html","226","528510","0.0-6.0-187.0","k345nca","202202622","rare"
"694","false","headache","90","90,76","B","","","","test","94","true","","categorize-html","228","530714","0.0-6.0-189.0","k345nca","202202622","common"
"641.9000000357628","false","fever","76","90,76","A","","","","test","95","true","","categorize-html","230","532867","0.0-6.0-191.0","k345nca","202202622","rare"
"956.5","false","rash","76","90,76","C","","","","test","96","true","","categorize-html","232","535331","0.0-6.0-193.0","k345nca","202202622","rare"
"1623.2999999523163","false","fever,headache","90","90,76","A","B","","","test","97","true","","categorize-html","235","541989","0.0-6.0-196.0","k345nca","202202622","common"
"804","false","rash","76","90,76","C","","","","test","98","true","","categorize-html","237","544303","0.0-6.0-198.0","k345nca","202202622","rare"
"751.2999999523163","false","rash,fever","76","90,76","C","A","","","test","99","true","","categorize-html","239","546562","0.0-6.0-200.0","k345nca","202202622","rare"
"1426.8999999761581","false","rash,headache","76","90,76","C","B","","","test","100","true","","categorize-html","241","549497","0.0-6.0-202.0","k345nca","202202622","rare"
"705.3999999761581","false","headache","90","90,76","B","","","","test","101","true","","categorize-html","243","551709","0.0-6.0-204.0","k345nca","202202622","common"
"1384.300000011921","false","headache,rash","76","90,76","B","C","","","test","102","true","","categorize-html","245","554603","0.0-6.0-206.0","k345nca","202202622","rare"
"749.3999999761581","false","headache,fever","90","90,76","B","A","","","test","103","true","","categorize-html","247","556864","0.0-6.0-208.0","k345nca","202202622","common"
"706.8999999761581","false","rash","76","90,76","C","","","","test","104","true","","categorize-html","249","559083","0.0-6.0-210.0","k345nca","202202622","rare"
"1555.300000011921","false","fever","76","90,76","A","","","","test","105","true","","categorize-html","251","562145","0.0-6.0-212.0","k345nca","202202622","rare"
"597","false","headache","90","90,76","B","","","","test","106","true","","categorize-html","253","564250","0.0-6.0-214.0","k345nca","202202622","common"
"1125.300000011921","false","fever","76","90,76","A","","","","test","107","true","","categorize-html","255","566885","0.0-6.0-216.0","k345nca","202202622","rare"
"899.6000000238419","false","fever,rash","76","90,76","A","C","","","test","108","true","","categorize-html","257","569295","0.0-6.0-218.0","k345nca","202202622","rare"
"1185","false","fever,headache","90","90,76","A","B","","","test","109","true","","categorize-html","259","571988","0.0-6.0-220.0","k345nca","202202622","common"
"1247.4000000357628","false","headache,fever","90","90,76","B","A","","","test","110","true","","categorize-html","261","574748","0.0-6.0-222.0","k345nca","202202622","common"
"991","false","headache,rash","76","90,76","B","C","","","test","111","true","","categorize-html","263","577248","0.0-6.0-224.0","k345nca","202202622","rare"
"977.3999999761581","false","rash,fever","76","90,76","C","A","","","test","112","true","","categorize-html","265","579739","0.0-6.0-226.0","k345nca","202202622","rare"
"1037.800000011921","false","rash,headache","76","90,76","C","B","","","test","113","true","","categorize-html","267","582284","0.0-6.0-228.0","k345nca","202202622","rare"
"700.2999999523163","false","headache","90","90,76","B","","","","test","114","true","","categorize-html","269","584492","0.0-6.0-230.0","k345nca","202202622","common"
"995.1999999880791","false","fever","76","90,76","A","","","","test","115","true","","categorize-html","271","586999","0.0-6.0-232.0","k345nca","202202622","rare"
"928.3999999761581","false","fever,rash","76","90,76","A","C","","","test","116","true","","categorize-html","273","589437","0.0-6.0-234.0","k345nca","202202622","rare"
"1746.3999999761581","false","fever","76","90,76","A","","","","test","117","true","","categorize-html","275","592695","0.0-6.0-236.0","k345nca","202202622","rare"
"862.1000000238419","false","rash","76","90,76","C","","","","test","118","true","","categorize-html","277","595069","0.0-6.0-238.0","k345nca","202202622","rare"
"1228","false","rash","76","90,76","C","","","","test","119","true","","categorize-html","279","597806","0.0-6.0-240.0","k345nca","202202622","rare"
"782.8999999761581","false","headache","90","90,76","B","","","","test","120","true","","categorize-html","281","600099","0.0-6.0-242.0","k345nca","202202622","common"
