"rt","correct","stimulus","key_press","keys","symptom1","symptom2","key","category","phase","trial","include","block","trial_type","trial_index","time_elapsed","internal_node_id","ppt","session","abresp"
"null","false","fever,headache","null","76,90","B","A","76","common","training","1","true","1","categorize-html","4","66378","0.0-4.0-0.0","72793","20222812","none"
"3097.0000000000146","true","headache,fever","76","76,90","A","B","76","common","training","2","true","1","categorize-html","6","70480","0.0-4.0-2.0","72793","20222812","common"
"3253","true","rash,headache","90","76,90","C","A","90","rare","training","3","true","1","categorize-html","8","74741","0.0-4.0-4.0","72793","20222812","rare"
"2321.9999999999854","true","fever,headache","76","76,90","B","A","76","common","training","4","true","1","categorize-html","10","78069","0.0-4.0-6.0","72793","20222812","common"
"2103","true","headache,fever","76","76,90","A","B","76","common","training","5","true","1","categorize-html","12","81176","0.0-4.0-8.0","72793","20222812","common"
"1946","false","headache,rash","32","76,90","A","C","90","rare","training","6","true","1","categorize-html","14","84130","0.0-4.0-10.0","72793","20222812","none"
"null","false","headache,fever","null","76,90","A","B","76","common","training","7","true","1","categorize-html","16","90143","0.0-4.0-12.0","72793","20222812","none"
"2983.0000000000146","false","fever,headache","32","76,90","B","A","76","common","training","8","true","1","categorize-html","18","94133","0.0-4.0-14.0","72793","20222812","none"
"3633","false","fever,headache","32","76,90","B","A","76","common","training","9","true","2","categorize-html","21","101562","0.0-4.0-17.0","72793","20222812","none"
"2769","false","headache,rash","32","76,90","A","C","90","rare","training","10","true","2","categorize-html","23","105340","0.0-4.0-19.0","72793","20222812","none"
"2211","false","fever,headache","32","76,90","B","A","76","common","training","11","true","2","categorize-html","25","108559","0.0-4.0-21.0","72793","20222812","none"
"1652","false","fever,headache","32","76,90","B","A","76","common","training","12","true","2","categorize-html","27","111219","0.0-4.0-23.0","72793","20222812","none"
"1526.0000000000146","false","rash,headache","32","76,90","C","A","90","rare","training","13","true","2","categorize-html","29","113751","0.0-4.0-25.0","72793","20222812","none"
"1192.9999999999854","false","headache,fever","32","76,90","A","B","76","common","training","14","true","2","categorize-html","31","115952","0.0-4.0-27.0","72793","20222812","none"
"962","false","headache,fever","32","76,90","A","B","76","common","training","15","true","2","categorize-html","33","117922","0.0-4.0-29.0","72793","20222812","none"
"829.0000000000146","false","headache,fever","32","76,90","A","B","76","common","training","16","true","2","categorize-html","35","119754","0.0-4.0-31.0","72793","20222812","none"
"2475.000000000029","false","headache,rash","90","76,90","A","C","","","test","1","true","","categorize-html","39","144345","0.0-6.0-0.0","72793","20222812","rare"
"596.9999999999709","false","fever,headache","76","76,90","B","A","","","test","2","true","","categorize-html","41","146449","0.0-6.0-2.0","72793","20222812","common"
"1954","false","headache","76","76,90","A","","","","test","3","true","","categorize-html","43","149910","0.0-6.0-4.0","72793","20222812","common"
"715","false","headache","76","76,90","A","","","","test","4","true","","categorize-html","45","152135","0.0-6.0-6.0","72793","20222812","common"
"1132","false","fever","76","76,90","B","","","","test","5","true","","categorize-html","47","154777","0.0-6.0-8.0","72793","20222812","common"
"599","false","rash,headache","90","76,90","C","A","","","test","6","true","","categorize-html","49","156884","0.0-6.0-10.0","72793","20222812","rare"
"588","false","rash,fever","90","76,90","C","B","","","test","7","true","","categorize-html","51","158981","0.0-6.0-12.0","72793","20222812","rare"
"631","false","fever","76","76,90","B","","","","test","8","true","","categorize-html","53","161120","0.0-6.0-14.0","72793","20222812","common"
"776","false","rash","90","76,90","C","","","","test","9","true","","categorize-html","55","163404","0.0-6.0-16.0","72793","20222812","rare"
"747","false","fever,rash","90","76,90","B","C","","","test","10","true","","categorize-html","57","165662","0.0-6.0-18.0","72793","20222812","rare"
"415","false","headache,fever","76","76,90","A","B","","","test","11","true","","categorize-html","59","167585","0.0-6.0-20.0","72793","20222812","common"
"420","false","rash","90","76,90","C","","","","test","12","true","","categorize-html","61","169513","0.0-6.0-22.0","72793","20222812","rare"
"518","false","fever","76","76,90","B","","","","test","13","true","","categorize-html","63","171539","0.0-6.0-24.0","72793","20222812","common"
"477","false","rash","90","76,90","C","","","","test","14","true","","categorize-html","65","173527","0.0-6.0-26.0","72793","20222812","rare"
"988","false","headache,fever","76","76,90","A","B","","","test","15","true","","categorize-html","67","176021","0.0-6.0-28.0","72793","20222812","common"
"5412","false","rash,fever","90","76,90","C","B","","","test","16","true","","categorize-html","69","182940","0.0-6.0-30.0","72793","20222812","rare"
"725.0000000000291","false","fever,headache","76","76,90","B","A","","","test","17","true","","categorize-html","71","185171","0.0-6.0-32.0","72793","20222812","common"
"702","false","headache,rash","90","76,90","A","C","","","test","18","true","","categorize-html","73","187381","0.0-6.0-34.0","72793","20222812","rare"
"807","false","headache","76","76,90","A","","","","test","19","true","","categorize-html","75","189696","0.0-6.0-36.0","72793","20222812","common"
"537","false","fever,rash","90","76,90","B","C","","","test","20","true","","categorize-html","77","191741","0.0-6.0-38.0","72793","20222812","rare"
"712","false","fever","76","76,90","B","","","","test","21","true","","categorize-html","79","193964","0.0-6.0-40.0","72793","20222812","common"
"872.0000000000291","false","rash,headache","90","76,90","C","A","","","test","22","true","","categorize-html","81","196344","0.0-6.0-42.0","72793","20222812","rare"
"615.9999999999709","false","rash","90","76,90","C","","","","test","23","true","","categorize-html","83","198465","0.0-6.0-44.0","72793","20222812","rare"
"902","false","headache","76","76,90","A","","","","test","24","true","","categorize-html","85","200872","0.0-6.0-46.0","72793","20222812","common"
"1566.999999999971","false","headache","76","76,90","A","","","","test","25","true","","categorize-html","88","218055","0.0-6.0-49.0","72793","20222812","common"
"530","false","fever","76","76,90","B","","","","test","26","true","","categorize-html","90","220092","0.0-6.0-51.0","72793","20222812","common"
"1221","false","headache,fever","76","76,90","A","B","","","test","27","true","","categorize-html","92","222821","0.0-6.0-53.0","72793","20222812","common"
"782","false","fever,headache","76","76,90","B","A","","","test","28","true","","categorize-html","94","225112","0.0-6.0-55.0","72793","20222812","common"
"403.0000000000291","false","fever,rash","90","76,90","B","C","","","test","29","true","","categorize-html","96","227023","0.0-6.0-57.0","72793","20222812","rare"
"674","false","headache","76","76,90","A","","","","test","30","true","","categorize-html","98","229204","0.0-6.0-59.0","72793","20222812","common"
"2741","false","rash","90","76,90","C","","","","test","31","true","","categorize-html","100","233455","0.0-6.0-61.0","72793","20222812","rare"
"2286","false","headache,rash","90","76,90","A","C","","","test","32","true","","categorize-html","102","237248","0.0-6.0-63.0","72793","20222812","rare"
"734","false","fever","76","76,90","B","","","","test","33","true","","categorize-html","104","239488","0.0-6.0-65.0","72793","20222812","common"
"666","false","rash,fever","90","76,90","C","B","","","test","34","true","","categorize-html","106","241659","0.0-6.0-67.0","72793","20222812","rare"
"607","false","rash,headache","76","76,90","C","A","","","test","35","true","","categorize-html","108","243772","0.0-6.0-69.0","72793","20222812","common"
"579.0000000000291","false","rash","90","76,90","C","","","","test","36","true","","categorize-html","110","245860","0.0-6.0-71.0","72793","20222812","rare"
"1182.999999999971","false","headache,fever","76","76,90","A","B","","","test","37","true","","categorize-html","112","248548","0.0-6.0-73.0","72793","20222812","common"
"668.9999999999709","false","fever,headache","76","76,90","B","A","","","test","38","true","","categorize-html","114","250726","0.0-6.0-75.0","72793","20222812","common"
"457","false","rash,fever","90","76,90","C","B","","","test","39","true","","categorize-html","116","252690","0.0-6.0-77.0","72793","20222812","rare"
"452","false","fever","76","76,90","B","","","","test","40","true","","categorize-html","118","254648","0.0-6.0-79.0","72793","20222812","common"
"461","false","headache,rash","90","76,90","A","C","","","test","41","true","","categorize-html","120","256614","0.0-6.0-81.0","72793","20222812","rare"
"478.0000000000291","false","rash","90","76,90","C","","","","test","42","true","","categorize-html","122","258597","0.0-6.0-83.0","72793","20222812","rare"
"529","false","headache","76","76,90","A","","","","test","43","true","","categorize-html","124","260634","0.0-6.0-85.0","72793","20222812","common"
"424.9999999999418","false","rash","90","76,90","C","","","","test","44","true","","categorize-html","126","262569","0.0-6.0-87.0","72793","20222812","rare"
"436","false","rash,headache","90","76,90","C","A","","","test","45","true","","categorize-html","128","264510","0.0-6.0-89.0","72793","20222812","rare"
"1027.0000000000582","false","headache","76","76,90","A","","","","test","46","true","","categorize-html","130","267041","0.0-6.0-91.0","72793","20222812","common"
"975","false","fever","76","76,90","B","","","","test","47","true","","categorize-html","132","269523","0.0-6.0-93.0","72793","20222812","common"
"1500","false","fever,rash","90","76,90","B","C","","","test","48","true","","categorize-html","134","272530","0.0-6.0-95.0","72793","20222812","rare"
"2795","false","rash,headache","90","76,90","C","A","","","test","49","true","","categorize-html","137","283950","0.0-6.0-98.0","72793","20222812","rare"
"527","false","rash","90","76,90","C","","","","test","50","true","","categorize-html","139","285987","0.0-6.0-100.0","72793","20222812","rare"
"790","false","headache","76","76,90","A","","","","test","51","true","","categorize-html","141","288285","0.0-6.0-102.0","72793","20222812","common"
"536","false","fever","76","76,90","B","","","","test","52","true","","categorize-html","143","290329","0.0-6.0-104.0","72793","20222812","common"
"614","false","headache,fever","76","76,90","A","B","","","test","53","true","","categorize-html","145","292453","0.0-6.0-106.0","72793","20222812","common"
"615","false","fever,rash","90","76,90","B","C","","","test","54","true","","categorize-html","147","294575","0.0-6.0-108.0","72793","20222812","rare"
"1893","false","fever,headache","76","76,90","B","A","","","test","55","true","","categorize-html","149","297978","0.0-6.0-110.0","72793","20222812","common"
"741","false","headache","76","76,90","A","","","","test","56","true","","categorize-html","151","300225","0.0-6.0-112.0","72793","20222812","common"
"1738.9999999999418","false","headache,rash","90","76,90","A","C","","","test","57","true","","categorize-html","153","303470","0.0-6.0-114.0","72793","20222812","rare"
"759","false","fever","76","76,90","B","","","","test","58","true","","categorize-html","155","305737","0.0-6.0-116.0","72793","20222812","common"
"518","false","rash,fever","90","76,90","C","B","","","test","59","true","","categorize-html","157","307761","0.0-6.0-118.0","72793","20222812","rare"
"453.9999999999418","false","rash","90","76,90","C","","","","test","60","true","","categorize-html","159","309719","0.0-6.0-120.0","72793","20222812","rare"
"639","false","fever,headache","90","76,90","B","A","","","test","61","true","","categorize-html","161","311862","0.0-6.0-122.0","72793","20222812","rare"
"696","false","headache,fever","76","76,90","A","B","","","test","62","true","","categorize-html","163","314068","0.0-6.0-124.0","72793","20222812","common"
"519","false","headache","76","76,90","A","","","","test","63","true","","categorize-html","165","316093","0.0-6.0-126.0","72793","20222812","common"
"490","false","rash","90","76,90","C","","","","test","64","true","","categorize-html","167","318091","0.0-6.0-128.0","72793","20222812","rare"
"415","false","rash","90","76,90","C","","","","test","65","true","","categorize-html","169","320011","0.0-6.0-130.0","72793","20222812","rare"
"415","false","headache","76","76,90","A","","","","test","66","true","","categorize-html","171","321933","0.0-6.0-132.0","72793","20222812","common"
"837.0000000000582","false","rash,fever","90","76,90","C","B","","","test","67","true","","categorize-html","173","324276","0.0-6.0-134.0","72793","20222812","rare"
"467","false","fever","76","76,90","B","","","","test","68","true","","categorize-html","175","326248","0.0-6.0-136.0","72793","20222812","common"
"522","false","fever,rash","90","76,90","B","C","","","test","69","true","","categorize-html","177","328277","0.0-6.0-138.0","72793","20222812","rare"
"667.0000000000582","false","fever","76","76,90","B","","","","test","70","true","","categorize-html","179","330451","0.0-6.0-140.0","72793","20222812","common"
"572","false","headache,rash","90","76,90","A","C","","","test","71","true","","categorize-html","181","332531","0.0-6.0-142.0","72793","20222812","rare"
"777.9999999999418","false","rash,headache","76","76,90","C","A","","","test","72","true","","categorize-html","183","334818","0.0-6.0-144.0","72793","20222812","common"
"663.9999999999418","false","rash","90","76,90","C","","","","test","73","true","","categorize-html","186","338290","0.0-6.0-147.0","72793","20222812","rare"
"456","false","rash,headache","76","76,90","C","A","","","test","74","true","","categorize-html","188","340254","0.0-6.0-149.0","72793","20222812","common"
"361","false","fever,headache","90","76,90","B","A","","","test","75","true","","categorize-html","190","342122","0.0-6.0-151.0","72793","20222812","rare"
"960.9999999999418","false","fever","76","76,90","B","","","","test","76","true","","categorize-html","192","344590","0.0-6.0-153.0","72793","20222812","common"
"603","false","headache","76","76,90","A","","","","test","77","true","","categorize-html","194","346701","0.0-6.0-155.0","72793","20222812","common"
"1226","false","headache,fever","76","76,90","A","B","","","test","78","true","","categorize-html","196","349436","0.0-6.0-157.0","72793","20222812","common"
"562","false","rash,fever","76","76,90","C","B","","","test","79","true","","categorize-html","198","351505","0.0-6.0-159.0","72793","20222812","common"
"173","false","fever","76","76,90","B","","","","test","80","true","","categorize-html","200","353188","0.0-6.0-161.0","72793","20222812","common"
"56","false","rash","76","76,90","C","","","","test","81","true","","categorize-html","202","354751","0.0-6.0-163.0","72793","20222812","common"
"506.0000000000582","false","fever,rash","90","76,90","B","C","","","test","82","true","","categorize-html","204","356763","0.0-6.0-165.0","72793","20222812","rare"
"303","false","headache,rash","76","76,90","A","C","","","test","83","true","","categorize-html","206","358574","0.0-6.0-167.0","72793","20222812","common"
"555","false","headache","76","76,90","A","","","","test","84","true","","categorize-html","208","360634","0.0-6.0-169.0","72793","20222812","common"
"574","false","rash,headache","90","76,90","C","A","","","test","85","true","","categorize-html","210","362716","0.0-6.0-171.0","72793","20222812","rare"
"573","false","fever,rash","90","76,90","B","C","","","test","86","true","","categorize-html","212","364799","0.0-6.0-173.0","72793","20222812","rare"
"1235","false","headache,rash","90","76,90","A","C","","","test","87","true","","categorize-html","214","367544","0.0-6.0-175.0","72793","20222812","rare"
"3601","false","headache","76","76,90","A","","","","test","88","true","","categorize-html","216","372652","0.0-6.0-177.0","72793","20222812","common"
"592","false","fever,headache","76","76,90","B","A","","","test","89","true","","categorize-html","218","374753","0.0-6.0-179.0","72793","20222812","common"
"909","false","fever","76","76,90","B","","","","test","90","true","","categorize-html","220","377167","0.0-6.0-181.0","72793","20222812","common"
"628.0000000000582","false","headache,fever","76","76,90","A","B","","","test","91","true","","categorize-html","222","379303","0.0-6.0-183.0","72793","20222812","common"
"618.9999999999418","false","rash","90","76,90","C","","","","test","92","true","","categorize-html","224","381431","0.0-6.0-185.0","72793","20222812","rare"
"826","false","headache","76","76,90","A","","","","test","93","true","","categorize-html","226","383765","0.0-6.0-187.0","72793","20222812","common"
"638","false","fever","76","76,90","B","","","","test","94","true","","categorize-html","228","385912","0.0-6.0-189.0","72793","20222812","common"
"582.0000000000582","false","rash","90","76,90","C","","","","test","95","true","","categorize-html","230","388003","0.0-6.0-191.0","72793","20222812","rare"
"514","false","rash,fever","90","76,90","C","B","","","test","96","true","","categorize-html","232","390026","0.0-6.0-193.0","72793","20222812","rare"
"1569.0000000000582","false","headache,fever","76","76,90","A","B","","","test","97","true","","categorize-html","235","512228","0.0-6.0-196.0","72793","20222812","common"
"557","false","headache","76","76,90","A","","","","test","98","true","","categorize-html","237","514291","0.0-6.0-198.0","72793","20222812","common"
"551.0000000000582","false","fever","76","76,90","B","","","","test","99","true","","categorize-html","239","516348","0.0-6.0-200.0","72793","20222812","common"
"1022.0000000000582","false","fever,headache","76","76,90","B","A","","","test","100","true","","categorize-html","241","518877","0.0-6.0-202.0","72793","20222812","common"
"2464.999999999942","false","rash,headache","90","76,90","C","A","","","test","101","true","","categorize-html","243","522846","0.0-6.0-204.0","72793","20222812","rare"
"437.9999999998836","false","rash","90","76,90","C","","","","test","102","true","","categorize-html","245","524790","0.0-6.0-206.0","72793","20222812","rare"
"718","false","fever","76","76,90","B","","","","test","103","true","","categorize-html","247","527014","0.0-6.0-208.0","72793","20222812","common"
"1863","false","rash","90","76,90","C","","","","test","104","true","","categorize-html","249","530385","0.0-6.0-210.0","72793","20222812","rare"
"736","false","rash,fever","90","76,90","C","B","","","test","105","true","","categorize-html","251","532626","0.0-6.0-212.0","72793","20222812","rare"
"510","false","fever,rash","90","76,90","B","C","","","test","106","true","","categorize-html","253","534643","0.0-6.0-214.0","72793","20222812","rare"
"1915","false","headache,rash","90","76,90","A","C","","","test","107","true","","categorize-html","255","538063","0.0-6.0-216.0","72793","20222812","rare"
"690","false","headache","76","76,90","A","","","","test","108","true","","categorize-html","257","540258","0.0-6.0-218.0","72793","20222812","common"
"719","false","headache,fever","76","76,90","A","B","","","test","109","true","","categorize-html","259","542483","0.0-6.0-220.0","72793","20222812","common"
"860","false","rash","90","76,90","C","","","","test","110","true","","categorize-html","261","544849","0.0-6.0-222.0","72793","20222812","rare"
"694","false","headache","76","76,90","A","","","","test","111","true","","categorize-html","263","547048","0.0-6.0-224.0","72793","20222812","common"
"912","false","headache,rash","90","76,90","A","C","","","test","112","true","","categorize-html","265","549467","0.0-6.0-226.0","72793","20222812","rare"
"539","false","rash","90","76,90","C","","","","test","113","true","","categorize-html","267","551511","0.0-6.0-228.0","72793","20222812","rare"
"607","false","rash,fever","90","76,90","C","B","","","test","114","true","","categorize-html","269","553624","0.0-6.0-230.0","72793","20222812","rare"
"1291","false","rash,headache","90","76,90","C","A","","","test","115","true","","categorize-html","271","556421","0.0-6.0-232.0","72793","20222812","rare"
"692","false","headache","76","76,90","A","","","","test","116","true","","categorize-html","273","558620","0.0-6.0-234.0","72793","20222812","common"
"860","false","fever","76","76,90","B","","","","test","117","true","","categorize-html","275","560986","0.0-6.0-236.0","72793","20222812","common"
"1123","false","fever,headache","76","76,90","B","A","","","test","118","true","","categorize-html","277","563617","0.0-6.0-238.0","72793","20222812","common"
"721.9999999998836","false","fever,rash","90","76,90","B","C","","","test","119","true","","categorize-html","279","565848","0.0-6.0-240.0","72793","20222812","rare"
"1469","false","fever","76","76,90","B","","","","test","120","true","","categorize-html","281","568823","0.0-6.0-242.0","72793","20222812","common"
