"rt","correct","stimulus","key_press","keys","symptom1","symptom2","key","category","phase","trial","include","block","trial_type","trial_index","time_elapsed","internal_node_id","ppt","session","abresp"
"null","false","headache,fever","null","90,76","A","C","76","rare","training","1","true","1","categorize-html","4","120948","0.0-4.0-0.0","72706","2022270","none"
"null","false","rash,headache","null","90,76","B","A","90","common","training","2","true","1","categorize-html","6","126992","0.0-4.0-2.0","72706","2022270","none"
"2778.0999999046326","false","fever,headache","32","90,76","C","A","76","rare","training","3","true","1","categorize-html","8","130792","0.0-4.0-4.0","72706","2022270","none"
"3165.7000000476837","false","rash,headache","32","90,76","B","A","90","common","training","4","true","1","categorize-html","10","134991","0.0-4.0-6.0","72706","2022270","none"
"2402.7999999523163","false","headache,rash","32","90,76","A","B","90","common","training","5","true","1","categorize-html","12","138415","0.0-4.0-8.0","72706","2022270","none"
"2558.2000000476837","false","headache,rash","32","90,76","A","B","90","common","training","6","true","1","categorize-html","14","141991","0.0-4.0-10.0","72706","2022270","none"
"2036.7999999523163","false","rash,headache","32","90,76","B","A","90","common","training","7","true","1","categorize-html","16","145042","0.0-4.0-12.0","72706","2022270","none"
"2113.7999999523163","false","headache,rash","32","90,76","A","B","90","common","training","8","true","1","categorize-html","18","148189","0.0-4.0-14.0","72706","2022270","none"
"2591","false","fever,headache","32","90,76","C","A","76","rare","training","9","true","2","categorize-html","21","155868","0.0-4.0-17.0","72706","2022270","none"
"2218.5","false","headache,rash","32","90,76","A","B","90","common","training","10","true","2","categorize-html","23","159094","0.0-4.0-19.0","72706","2022270","none"
"2002.1000001430511","false","headache,fever","32","90,76","A","C","76","rare","training","11","true","2","categorize-html","25","162115","0.0-4.0-21.0","72706","2022270","none"
"1763.7000000476837","false","rash,headache","32","90,76","B","A","90","common","training","12","true","2","categorize-html","27","164913","0.0-4.0-23.0","72706","2022270","none"
"1407.2999999523163","false","headache,rash","32","90,76","A","B","90","common","training","13","true","2","categorize-html","29","167329","0.0-4.0-25.0","72706","2022270","none"
"960.7999999523163","false","headache,rash","32","90,76","A","B","90","common","training","14","true","2","categorize-html","31","169313","0.0-4.0-27.0","72706","2022270","none"
"1081.3999998569489","false","rash,headache","32","90,76","B","A","90","common","training","15","true","2","categorize-html","33","171426","0.0-4.0-29.0","72706","2022270","none"
"1189.1000001430511","false","rash,headache","32","90,76","B","A","90","common","training","16","true","2","categorize-html","35","173640","0.0-4.0-31.0","72706","2022270","none"
"2430.0999999046326","false","rash,headache","32","90,76","B","A","90","common","training","17","true","3","categorize-html","38","182303","0.0-4.0-34.0","72706","2022270","none"
"2090.5999999046326","false","headache,rash","32","90,76","A","B","90","common","training","18","true","3","categorize-html","40","185415","0.0-4.0-36.0","72706","2022270","none"
"1327.7000000476837","false","rash,headache","32","90,76","B","A","90","common","training","19","true","3","categorize-html","42","187772","0.0-4.0-38.0","72706","2022270","none"
"1050.2000000476837","false","headache,rash","32","90,76","A","B","90","common","training","20","true","3","categorize-html","44","189843","0.0-4.0-40.0","72706","2022270","none"
"1542","false","headache,rash","32","90,76","A","B","90","common","training","21","true","3","categorize-html","46","192415","0.0-4.0-42.0","72706","2022270","none"
"2446.7999999523163","false","fever,headache","32","90,76","C","A","76","rare","training","22","true","3","categorize-html","48","195879","0.0-4.0-44.0","72706","2022270","none"
"2723.4000000953674","false","headache,fever","32","90,76","A","C","76","rare","training","23","true","3","categorize-html","50","199625","0.0-4.0-46.0","72706","2022270","none"
"1894.6999998092651","false","rash,headache","32","90,76","B","A","90","common","training","24","true","3","categorize-html","52","202548","0.0-4.0-48.0","72706","2022270","none"
"1497.3999998569489","false","rash,headache","32","90,76","B","A","90","common","training","25","true","4","categorize-html","55","209037","0.0-4.0-51.0","72706","2022270","none"
"325","false","fever,headache","32","90,76","C","A","76","rare","training","26","true","4","categorize-html","57","210380","0.0-4.0-53.0","72706","2022270","none"
"533.1000001430511","false","headache,fever","32","90,76","A","C","76","rare","training","27","true","4","categorize-html","59","211921","0.0-4.0-55.0","72706","2022270","none"
"724.5","false","rash,headache","32","90,76","B","A","90","common","training","28","true","4","categorize-html","61","213676","0.0-4.0-57.0","72706","2022270","none"
"647.8999998569489","false","headache,rash","32","90,76","A","B","90","common","training","29","true","4","categorize-html","63","215340","0.0-4.0-59.0","72706","2022270","none"
"755.7000000476837","false","rash,headache","32","90,76","B","A","90","common","training","30","true","4","categorize-html","65","217124","0.0-4.0-61.0","72706","2022270","none"
"825.4000000953674","false","headache,rash","32","90,76","A","B","90","common","training","31","true","4","categorize-html","67","218961","0.0-4.0-63.0","72706","2022270","none"
"909.1000001430511","false","headache,rash","32","90,76","A","B","90","common","training","32","true","4","categorize-html","69","220898","0.0-4.0-65.0","72706","2022270","none"
"2102.600000143051","false","headache,rash","32","90,76","A","B","90","common","training","33","true","5","categorize-html","72","226779","0.0-4.0-68.0","72706","2022270","none"
"1480.5999999046326","false","rash,headache","32","90,76","B","A","90","common","training","34","true","5","categorize-html","74","229279","0.0-4.0-70.0","72706","2022270","none"
"1869.7000000476837","false","rash,headache","32","90,76","B","A","90","common","training","35","true","5","categorize-html","76","232167","0.0-4.0-72.0","72706","2022270","none"
"861.4000000953674","false","fever,headache","32","90,76","C","A","76","rare","training","36","true","5","categorize-html","78","234058","0.0-4.0-74.0","72706","2022270","none"
"968.5","false","headache,rash","32","90,76","A","B","90","common","training","37","true","5","categorize-html","80","236037","0.0-4.0-76.0","72706","2022270","none"
"723.5999999046326","false","rash,headache","32","90,76","B","A","90","common","training","38","true","5","categorize-html","82","237777","0.0-4.0-78.0","72706","2022270","none"
"1713.1000001430511","false","headache,rash","32","90,76","A","B","90","common","training","39","true","5","categorize-html","84","240520","0.0-4.0-80.0","72706","2022270","none"
"1359.4000000953674","false","headache,fever","32","90,76","A","C","76","rare","training","40","true","5","categorize-html","86","242900","0.0-4.0-82.0","72706","2022270","none"
"3318.4000000953674","false","headache","76","90,76","A","","","","test","1","true","","categorize-html","90","263777","0.0-6.0-0.0","72706","2022270","rare"
"2732.300000190735","false","headache,fever","76","90,76","A","C","","","test","2","true","","categorize-html","92","268041","0.0-6.0-2.0","72706","2022270","rare"
"1075.3999998569489","false","rash,headache","90","90,76","B","A","","","test","3","true","","categorize-html","94","270636","0.0-6.0-4.0","72706","2022270","common"
"1169.9000000953674","false","rash","90","90,76","B","","","","test","4","true","","categorize-html","96","273317","0.0-6.0-6.0","72706","2022270","common"
"1641.3999998569489","false","rash,fever","90","90,76","B","C","","","test","5","true","","categorize-html","98","276487","0.0-6.0-8.0","72706","2022270","common"
"1893.7999999523163","false","fever,rash","90","90,76","C","B","","","test","6","true","","categorize-html","100","279902","0.0-6.0-10.0","72706","2022270","common"
"1117.0999999046326","false","fever","76","90,76","C","","","","test","7","true","","categorize-html","102","282544","0.0-6.0-12.0","72706","2022270","rare"
"1041","false","headache","76","90,76","A","","","","test","8","true","","categorize-html","104","285107","0.0-6.0-14.0","72706","2022270","rare"
"947.2999999523163","false","rash","90","90,76","B","","","","test","9","true","","categorize-html","106","287585","0.0-6.0-16.0","72706","2022270","common"
"1118.1000001430511","false","headache,rash","90","90,76","A","B","","","test","10","true","","categorize-html","108","290230","0.0-6.0-18.0","72706","2022270","common"
"1160.2000000476837","false","fever,headache","76","90,76","C","A","","","test","11","true","","categorize-html","110","292919","0.0-6.0-20.0","72706","2022270","rare"
"646.2000000476837","false","fever","76","90,76","C","","","","test","12","true","","categorize-html","112","295088","0.0-6.0-22.0","72706","2022270","rare"
"1642.2000000476837","false","headache,fever","76","90,76","A","C","","","test","13","true","","categorize-html","114","298236","0.0-6.0-24.0","72706","2022270","rare"
"743.9000000953674","false","headache","76","90,76","A","","","","test","14","true","","categorize-html","116","300508","0.0-6.0-26.0","72706","2022270","rare"
"888.8999998569489","false","fever,headache","76","90,76","C","A","","","test","15","true","","categorize-html","118","302925","0.0-6.0-28.0","72706","2022270","rare"
"819.6000001430511","false","rash,headache","90","90,76","B","A","","","test","16","true","","categorize-html","120","305264","0.0-6.0-30.0","72706","2022270","common"
"897.1000001430511","false","rash","90","90,76","B","","","","test","17","true","","categorize-html","122","307689","0.0-6.0-32.0","72706","2022270","common"
"626.4000000953674","false","rash","90","90,76","B","","","","test","18","true","","categorize-html","124","309831","0.0-6.0-34.0","72706","2022270","common"
"670.1000001430511","false","fever","76","90,76","C","","","","test","19","true","","categorize-html","126","312021","0.0-6.0-36.0","72706","2022270","rare"
"1042.7999999523163","false","headache,rash","90","90,76","A","B","","","test","20","true","","categorize-html","128","314598","0.0-6.0-38.0","72706","2022270","common"
"554.0999999046326","false","headache","90","90,76","A","","","","test","21","true","","categorize-html","130","316677","0.0-6.0-40.0","72706","2022270","common"
"1987.2999999523163","false","rash,fever","90","90,76","B","C","","","test","22","true","","categorize-html","132","320199","0.0-6.0-42.0","72706","2022270","common"
"847.3999998569489","false","fever","76","90,76","C","","","","test","23","true","","categorize-html","134","322575","0.0-6.0-44.0","72706","2022270","rare"
"1277.7000000476837","false","fever,rash","76","90,76","C","B","","","test","24","true","","categorize-html","136","325384","0.0-6.0-46.0","72706","2022270","rare"
"1577.8999998569489","false","rash","90","90,76","B","","","","test","25","true","","categorize-html","139","330708","0.0-6.0-49.0","72706","2022270","common"
"990.4000000953674","false","headache","76","90,76","A","","","","test","26","true","","categorize-html","141","333215","0.0-6.0-51.0","72706","2022270","rare"
"660.5","false","headache","76","90,76","A","","","","test","27","true","","categorize-html","143","335403","0.0-6.0-53.0","72706","2022270","rare"
"1374.7999999523163","false","fever,headache","76","90,76","C","A","","","test","28","true","","categorize-html","145","338299","0.0-6.0-55.0","72706","2022270","rare"
"741.3000001907349","false","headache,rash","90","90,76","A","B","","","test","29","true","","categorize-html","147","340567","0.0-6.0-57.0","72706","2022270","common"
"745.3999998569489","false","rash,headache","90","90,76","B","A","","","test","30","true","","categorize-html","149","342836","0.0-6.0-59.0","72706","2022270","common"
"664.5","false","rash","90","90,76","B","","","","test","31","true","","categorize-html","151","345021","0.0-6.0-61.0","72706","2022270","common"
"1444.9000000953674","false","fever,rash","90","90,76","C","B","","","test","32","true","","categorize-html","153","347992","0.0-6.0-63.0","72706","2022270","common"
"690","false","fever","76","90,76","C","","","","test","33","true","","categorize-html","155","350215","0.0-6.0-65.0","72706","2022270","rare"
"3252.2000000476837","false","headache,fever","76","90,76","A","C","","","test","34","true","","categorize-html","157","354990","0.0-6.0-67.0","72706","2022270","rare"
"1665.1000001430511","false","rash,fever","90","90,76","B","C","","","test","35","true","","categorize-html","159","358166","0.0-6.0-69.0","72706","2022270","common"
"722.7000000476837","false","fever","76","90,76","C","","","","test","36","true","","categorize-html","161","360407","0.0-6.0-71.0","72706","2022270","rare"
"669.2999999523163","false","rash","90","90,76","B","","","","test","37","true","","categorize-html","163","362604","0.0-6.0-73.0","72706","2022270","common"
"1179.2000000476837","false","headache,rash","90","90,76","A","B","","","test","38","true","","categorize-html","165","365312","0.0-6.0-75.0","72706","2022270","common"
"872.3000001907349","false","headache,fever","76","90,76","A","C","","","test","39","true","","categorize-html","167","367692","0.0-6.0-77.0","72706","2022270","rare"
"908.5999999046326","false","headache","76","90,76","A","","","","test","40","true","","categorize-html","169","370129","0.0-6.0-79.0","72706","2022270","rare"
"914.5","false","rash,headache","90","90,76","B","A","","","test","41","true","","categorize-html","171","372568","0.0-6.0-81.0","72706","2022270","common"
"776.3999998569489","false","fever,headache","76","90,76","C","A","","","test","42","true","","categorize-html","173","374860","0.0-6.0-83.0","72706","2022270","rare"
"808.5","false","headache","76","90,76","A","","","","test","43","true","","categorize-html","175","377176","0.0-6.0-85.0","72706","2022270","rare"
"1023.5","false","fever","76","90,76","C","","","","test","44","true","","categorize-html","177","379728","0.0-6.0-87.0","72706","2022270","rare"
"962.4000000953674","false","rash","90","90,76","B","","","","test","45","true","","categorize-html","179","382215","0.0-6.0-89.0","72706","2022270","common"
"516.0999999046326","false","fever","76","90,76","C","","","","test","46","true","","categorize-html","181","384256","0.0-6.0-91.0","72706","2022270","rare"
"1346.7999999523163","false","rash,fever","90","90,76","B","C","","","test","47","true","","categorize-html","183","387121","0.0-6.0-93.0","72706","2022270","common"
"812","false","fever,rash","90","90,76","C","B","","","test","48","true","","categorize-html","185","389453","0.0-6.0-95.0","72706","2022270","common"
"1518.5","false","headache","76","90,76","A","","","","test","49","true","","categorize-html","188","428290","0.0-6.0-98.0","72706","2022270","rare"
"648.3000001907349","false","rash","90","90,76","B","","","","test","50","true","","categorize-html","190","430465","0.0-6.0-100.0","72706","2022270","common"
"1553.7000000476837","false","fever,headache","76","90,76","C","A","","","test","51","true","","categorize-html","192","433538","0.0-6.0-102.0","72706","2022270","rare"
"790.5","false","fever","76","90,76","C","","","","test","52","true","","categorize-html","194","435858","0.0-6.0-104.0","72706","2022270","rare"
"1341","false","headache,fever","76","90,76","A","C","","","test","53","true","","categorize-html","196","438731","0.0-6.0-106.0","72706","2022270","rare"
"646.5","false","rash","90","90,76","B","","","","test","54","true","","categorize-html","198","440897","0.0-6.0-108.0","72706","2022270","common"
"476.90000009536743","false","fever","76","90,76","C","","","","test","55","true","","categorize-html","200","442894","0.0-6.0-110.0","72706","2022270","rare"
"1753.6999998092651","false","rash,fever","90","90,76","B","C","","","test","56","true","","categorize-html","202","446168","0.0-6.0-112.0","72706","2022270","common"
"693.0999999046326","false","rash,headache","90","90,76","B","A","","","test","57","true","","categorize-html","204","448379","0.0-6.0-114.0","72706","2022270","common"
"868.6000001430511","false","headache,rash","90","90,76","A","B","","","test","58","true","","categorize-html","206","450770","0.0-6.0-116.0","72706","2022270","common"
"580.5999999046326","false","headache","90","90,76","A","","","","test","59","true","","categorize-html","208","452885","0.0-6.0-118.0","72706","2022270","common"
"992.2999999523163","false","fever,rash","76","90,76","C","B","","","test","60","true","","categorize-html","210","455389","0.0-6.0-120.0","72706","2022270","rare"
"1327.7999999523163","false","headache,rash","90","90,76","A","B","","","test","61","true","","categorize-html","212","458233","0.0-6.0-122.0","72706","2022270","common"
"899.7000000476837","false","rash","90","90,76","B","","","","test","62","true","","categorize-html","214","460653","0.0-6.0-124.0","72706","2022270","common"
"877.2000000476837","false","fever,headache","76","90,76","C","A","","","test","63","true","","categorize-html","216","463054","0.0-6.0-126.0","72706","2022270","rare"
"644.6000001430511","false","fever","76","90,76","C","","","","test","64","true","","categorize-html","218","465224","0.0-6.0-128.0","72706","2022270","rare"
"1145.5","false","headache,fever","76","90,76","A","C","","","test","65","true","","categorize-html","220","467895","0.0-6.0-130.0","72706","2022270","rare"
"478.40000009536743","false","rash","90","90,76","B","","","","test","66","true","","categorize-html","222","469894","0.0-6.0-132.0","72706","2022270","common"
"968.9000000953674","false","headache","76","90,76","A","","","","test","67","true","","categorize-html","224","472380","0.0-6.0-134.0","72706","2022270","rare"
"669.6000001430511","false","fever","76","90,76","C","","","","test","68","true","","categorize-html","226","474566","0.0-6.0-136.0","72706","2022270","rare"
"779.7999999523163","false","rash,fever","90","90,76","B","C","","","test","69","true","","categorize-html","228","476877","0.0-6.0-138.0","72706","2022270","common"
"1045","false","headache","76","90,76","A","","","","test","70","true","","categorize-html","230","479456","0.0-6.0-140.0","72706","2022270","rare"
"1169.5999999046326","false","rash,headache","90","90,76","B","A","","","test","71","true","","categorize-html","232","482136","0.0-6.0-142.0","72706","2022270","common"
"1483.2999999523163","false","fever,rash","76","90,76","C","B","","","test","72","true","","categorize-html","234","485141","0.0-6.0-144.0","72706","2022270","rare"
"2240.5999999046326","false","rash,fever","90","90,76","B","C","","","test","73","true","","categorize-html","237","519004","0.0-6.0-147.0","72706","2022270","common"
"845.5","false","headache","76","90,76","A","","","","test","74","true","","categorize-html","239","521375","0.0-6.0-149.0","72706","2022270","rare"
"862.2999999523163","false","fever,headache","76","90,76","C","A","","","test","75","true","","categorize-html","241","523764","0.0-6.0-151.0","72706","2022270","rare"
"648.9000000953674","false","fever","76","90,76","C","","","","test","76","true","","categorize-html","243","525935","0.0-6.0-153.0","72706","2022270","rare"
"736.0999999046326","false","headache","76","90,76","A","","","","test","77","true","","categorize-html","245","528202","0.0-6.0-155.0","72706","2022270","rare"
"1532.5","false","rash,headache","90","90,76","B","A","","","test","78","true","","categorize-html","247","531261","0.0-6.0-157.0","72706","2022270","common"
"1407.2999999523163","false","headache,fever","76","90,76","A","C","","","test","79","true","","categorize-html","249","534192","0.0-6.0-159.0","72706","2022270","rare"
"677.9000000953674","false","rash","90","90,76","B","","","","test","80","true","","categorize-html","251","536388","0.0-6.0-161.0","72706","2022270","common"
"905.6000001430511","false","fever","76","90,76","C","","","","test","81","true","","categorize-html","253","538817","0.0-6.0-163.0","72706","2022270","rare"
"707.5999999046326","false","rash","90","90,76","B","","","","test","82","true","","categorize-html","255","541054","0.0-6.0-165.0","72706","2022270","common"
"2291.899999856949","false","fever,rash","90","90,76","C","B","","","test","83","true","","categorize-html","257","544867","0.0-6.0-167.0","72706","2022270","common"
"1024.2999999523163","false","headache,rash","90","90,76","A","B","","","test","84","true","","categorize-html","259","547414","0.0-6.0-169.0","72706","2022270","common"
"1345.4000000953674","false","rash,headache","90","90,76","B","A","","","test","85","true","","categorize-html","261","550289","0.0-6.0-171.0","72706","2022270","common"
"1025.2000000476837","false","headache","76","90,76","A","","","","test","86","true","","categorize-html","263","552837","0.0-6.0-173.0","72706","2022270","rare"
"570.2999999523163","false","headache","76","90,76","A","","","","test","87","true","","categorize-html","265","554926","0.0-6.0-175.0","72706","2022270","rare"
"893.9000000953674","false","headache,rash","90","90,76","A","B","","","test","88","true","","categorize-html","267","557345","0.0-6.0-177.0","72706","2022270","common"
"654.2000000476837","false","fever","76","90,76","C","","","","test","89","true","","categorize-html","269","559517","0.0-6.0-179.0","72706","2022270","rare"
"586.4000000953674","false","fever","76","90,76","C","","","","test","90","true","","categorize-html","271","561619","0.0-6.0-181.0","72706","2022270","rare"
"1422.6000001430511","false","fever,headache","76","90,76","C","A","","","test","91","true","","categorize-html","273","564561","0.0-6.0-183.0","72706","2022270","rare"
"678.2999999523163","false","rash","90","90,76","B","","","","test","92","true","","categorize-html","275","566748","0.0-6.0-185.0","72706","2022270","common"
"1133.0999999046326","false","headache,fever","76","90,76","A","C","","","test","93","true","","categorize-html","277","569400","0.0-6.0-187.0","72706","2022270","rare"
"675.0999999046326","false","rash","90","90,76","B","","","","test","94","true","","categorize-html","279","571603","0.0-6.0-189.0","72706","2022270","common"
"1437.0999999046326","false","fever,rash","90","90,76","C","B","","","test","95","true","","categorize-html","281","574570","0.0-6.0-191.0","72706","2022270","common"
"1797.7000000476837","false","rash,fever","90","90,76","B","C","","","test","96","true","","categorize-html","283","577895","0.0-6.0-193.0","72706","2022270","common"
"1048.7999999523163","false","rash","90","90,76","B","","","","test","97","true","","categorize-html","286","582350","0.0-6.0-196.0","72706","2022270","common"
"503.2999999523163","false","fever","76","90,76","C","","","","test","98","true","","categorize-html","288","584359","0.0-6.0-198.0","72706","2022270","rare"
"1255.7000000476837","false","fever,rash","90","90,76","C","B","","","test","99","true","","categorize-html","290","587132","0.0-6.0-200.0","72706","2022270","common"
"1557.0999999046326","false","fever,headache","76","90,76","C","A","","","test","100","true","","categorize-html","292","590210","0.0-6.0-202.0","72706","2022270","rare"
"1035.2000000476837","false","headache,rash","90","90,76","A","B","","","test","101","true","","categorize-html","294","592772","0.0-6.0-204.0","72706","2022270","common"
"855.1000001430511","false","headache","90","90,76","A","","","","test","102","true","","categorize-html","296","595162","0.0-6.0-206.0","72706","2022270","common"
"1452.4000000953674","false","headache,fever","76","90,76","A","C","","","test","103","true","","categorize-html","298","598145","0.0-6.0-208.0","72706","2022270","rare"
"1412.8000001907349","false","headache","76","90,76","A","","","","test","104","true","","categorize-html","300","601072","0.0-6.0-210.0","72706","2022270","rare"
"1498.5999999046326","false","rash,headache","90","90,76","B","A","","","test","105","true","","categorize-html","302","604091","0.0-6.0-212.0","72706","2022270","common"
"1572.4000000953674","false","rash,fever","76","90,76","B","C","","","test","106","true","","categorize-html","304","607189","0.0-6.0-214.0","72706","2022270","rare"
"1948.8000001907349","false","rash","76","90,76","B","","","","test","107","true","","categorize-html","306","610658","0.0-6.0-216.0","72706","2022270","rare"
"752.4000000953674","false","fever","76","90,76","C","","","","test","108","true","","categorize-html","308","612928","0.0-6.0-218.0","72706","2022270","rare"
"1109.6999998092651","false","rash,fever","76","90,76","B","C","","","test","109","true","","categorize-html","310","615556","0.0-6.0-220.0","72706","2022270","rare"
"933.4000000953674","false","rash","90","90,76","B","","","","test","110","true","","categorize-html","312","618010","0.0-6.0-222.0","72706","2022270","common"
"1186.8999998569489","false","headache,fever","76","90,76","A","C","","","test","111","true","","categorize-html","314","620705","0.0-6.0-224.0","72706","2022270","rare"
"867.5999999046326","false","fever","76","90,76","C","","","","test","112","true","","categorize-html","316","623104","0.0-6.0-226.0","72706","2022270","rare"
"1490","false","headache","76","90,76","A","","","","test","113","true","","categorize-html","318","626118","0.0-6.0-228.0","72706","2022270","rare"
"1115.4000000953674","false","headache","76","90,76","A","","","","test","114","true","","categorize-html","320","628743","0.0-6.0-230.0","72706","2022270","rare"
"3631.2999999523163","false","rash","76","90,76","B","","","","test","115","true","","categorize-html","322","633901","0.0-6.0-232.0","72706","2022270","rare"
"1195.2000000476837","false","fever","76","90,76","C","","","","test","116","true","","categorize-html","324","636614","0.0-6.0-234.0","72706","2022270","rare"
"1217.7999999523163","false","rash,headache","90","90,76","B","A","","","test","117","true","","categorize-html","326","639346","0.0-6.0-236.0","72706","2022270","common"
"1569.2999999523163","false","fever,headache","76","90,76","C","A","","","test","118","true","","categorize-html","328","642430","0.0-6.0-238.0","72706","2022270","rare"
"1656.2999999523163","false","fever,rash","90","90,76","C","B","","","test","119","true","","categorize-html","330","645602","0.0-6.0-240.0","72706","2022270","common"
"1098.2000000476837","false","headache,rash","90","90,76","A","B","","","test","120","true","","categorize-html","332","648213","0.0-6.0-242.0","72706","2022270","common"
