"rt","correct","stimulus","key_press","keys","symptom1","symptom2","key","category","phase","trial","include","block","trial_type","trial_index","time_elapsed","internal_node_id","ppt","session","abresp"
"null","false","rash,fever","null","76,90","B","A","76","common","training","1","true","1","categorize-html","4","123604","0.0-4.0-0.0","75613","2022280","none"
"4029.800000190735","false","headache,fever","32","76,90","C","A","90","rare","training","2","true","1","categorize-html","6","128643","0.0-4.0-2.0","75613","2022280","none"
"3070","false","fever,rash","32","76,90","A","B","76","common","training","3","true","1","categorize-html","8","132725","0.0-4.0-4.0","75613","2022280","none"
"3007.2000000476837","false","fever,rash","32","76,90","A","B","76","common","training","4","true","1","categorize-html","10","136745","0.0-4.0-6.0","75613","2022280","none"
"2340.7000000476837","false","rash,fever","32","76,90","B","A","76","common","training","5","true","1","categorize-html","12","140093","0.0-4.0-8.0","75613","2022280","none"
"1295.5999999046326","false","rash,fever","32","76,90","B","A","76","common","training","6","true","1","categorize-html","14","142396","0.0-4.0-10.0","75613","2022280","none"
"1681.2000000476837","false","fever,headache","32","76,90","A","C","90","rare","training","7","true","1","categorize-html","16","145086","0.0-4.0-12.0","75613","2022280","none"
"1338.7000000476837","false","fever,rash","32","76,90","A","B","76","common","training","8","true","1","categorize-html","18","147437","0.0-4.0-14.0","75613","2022280","none"
"1559.5","false","fever,rash","32","76,90","A","B","76","common","training","9","true","2","categorize-html","21","156332","0.0-4.0-17.0","75613","2022280","none"
"1441.2999999523163","false","headache,fever","32","76,90","C","A","90","rare","training","10","true","2","categorize-html","23","158780","0.0-4.0-19.0","75613","2022280","none"
"1608.7999999523163","false","fever,rash","32","76,90","A","B","76","common","training","11","true","2","categorize-html","25","161396","0.0-4.0-21.0","75613","2022280","none"
"2449.5","false","rash,fever","32","76,90","B","A","76","common","training","12","true","2","categorize-html","27","164855","0.0-4.0-23.0","75613","2022280","none"
"982.9000000953674","false","fever,rash","32","76,90","A","B","76","common","training","13","true","2","categorize-html","29","166845","0.0-4.0-25.0","75613","2022280","none"
"811.1000001430511","false","rash,fever","32","76,90","B","A","76","common","training","14","true","2","categorize-html","31","168666","0.0-4.0-27.0","75613","2022280","none"
"1600","false","fever,headache","32","76,90","A","C","90","rare","training","15","true","2","categorize-html","33","171277","0.0-4.0-29.0","75613","2022280","none"
"1633.7999999523163","false","rash,fever","32","76,90","B","A","76","common","training","16","true","2","categorize-html","35","173919","0.0-4.0-31.0","75613","2022280","none"
"3020.7000000476837","false","rash,fever","76","76,90","B","A","","","test","1","true","","categorize-html","39","210471","0.0-6.0-0.0","75613","2022280","common"
"1496.3999998569489","false","headache","90","76,90","C","","","","test","2","true","","categorize-html","41","213479","0.0-6.0-2.0","75613","2022280","rare"
"1059.7000000476837","false","headache","90","76,90","C","","","","test","3","true","","categorize-html","43","216052","0.0-6.0-4.0","75613","2022280","rare"
"2740.9000000953674","false","fever","76","76,90","A","","","","test","4","true","","categorize-html","45","220302","0.0-6.0-6.0","75613","2022280","common"
"1930.1000001430511","false","headache,rash","90","76,90","C","B","","","test","5","true","","categorize-html","47","223745","0.0-6.0-8.0","75613","2022280","rare"
"1420.7999999523163","false","rash,headache","90","76,90","B","C","","","test","6","true","","categorize-html","49","226677","0.0-6.0-10.0","75613","2022280","rare"
"2783.2999999523163","false","rash","76","76,90","B","","","","test","7","true","","categorize-html","51","230964","0.0-6.0-12.0","75613","2022280","common"
"1803.2000000476837","false","fever,headache","90","76,90","A","C","","","test","8","true","","categorize-html","53","234280","0.0-6.0-14.0","75613","2022280","rare"
"832.4000000953674","false","fever","76","76,90","A","","","","test","9","true","","categorize-html","55","236622","0.0-6.0-16.0","75613","2022280","common"
"1975.3999998569489","false","headache,fever","90","76,90","C","A","","","test","10","true","","categorize-html","57","240106","0.0-6.0-18.0","75613","2022280","rare"
"829.7999999523163","false","rash","76","76,90","B","","","","test","11","true","","categorize-html","59","242445","0.0-6.0-20.0","75613","2022280","common"
"3245","false","fever,rash","76","76,90","A","B","","","test","12","true","","categorize-html","61","247200","0.0-6.0-22.0","75613","2022280","common"
"752.8999998569489","false","headache","90","76,90","C","","","","test","13","true","","categorize-html","63","249463","0.0-6.0-24.0","75613","2022280","rare"
"1057.8999998569489","false","headache,fever","90","76,90","C","A","","","test","14","true","","categorize-html","65","252034","0.0-6.0-26.0","75613","2022280","rare"
"609.1000001430511","false","fever,headache","90","76,90","A","C","","","test","15","true","","categorize-html","67","254147","0.0-6.0-28.0","75613","2022280","rare"
"5237.399999856949","false","fever","90","76,90","A","","","","test","16","true","","categorize-html","69","260898","0.0-6.0-30.0","75613","2022280","rare"
"1356.5","false","fever,rash","76","76,90","A","B","","","test","17","true","","categorize-html","71","263768","0.0-6.0-32.0","75613","2022280","common"
"735.2000000476837","false","headache,rash","76","76,90","C","B","","","test","18","true","","categorize-html","73","266012","0.0-6.0-34.0","75613","2022280","common"
"875","false","rash","76","76,90","B","","","","test","19","true","","categorize-html","75","268398","0.0-6.0-36.0","75613","2022280","common"
"3154.2000000476837","false","rash,headache","90","76,90","B","C","","","test","20","true","","categorize-html","77","273059","0.0-6.0-38.0","75613","2022280","rare"
"1798.7000000476837","false","fever","76","76,90","A","","","","test","21","true","","categorize-html","79","276370","0.0-6.0-40.0","75613","2022280","common"
"653.6000001430511","false","headache","90","76,90","C","","","","test","22","true","","categorize-html","81","278537","0.0-6.0-42.0","75613","2022280","rare"
"1122.3000001907349","false","rash,fever","76","76,90","B","A","","","test","23","true","","categorize-html","83","281163","0.0-6.0-44.0","75613","2022280","common"
"726.5","false","rash","76","76,90","B","","","","test","24","true","","categorize-html","85","283400","0.0-6.0-46.0","75613","2022280","common"
"1141.8999998569489","false","rash,fever","76","76,90","B","A","","","test","25","true","","categorize-html","88","289199","0.0-6.0-49.0","75613","2022280","common"
"618.2999999523163","false","headache,fever","90","76,90","C","A","","","test","26","true","","categorize-html","90","291329","0.0-6.0-51.0","75613","2022280","rare"
"437.7999999523163","false","rash","76","76,90","B","","","","test","27","true","","categorize-html","92","293280","0.0-6.0-53.0","75613","2022280","common"
"440.2000000476837","false","fever","90","76,90","A","","","","test","28","true","","categorize-html","94","295233","0.0-6.0-55.0","75613","2022280","rare"
"708.8000001907349","false","rash","76","76,90","B","","","","test","29","true","","categorize-html","96","297450","0.0-6.0-57.0","75613","2022280","common"
"558","false","headache","90","76,90","C","","","","test","30","true","","categorize-html","98","299519","0.0-6.0-59.0","75613","2022280","rare"
"551.6999998092651","false","fever,headache","90","76,90","A","C","","","test","31","true","","categorize-html","100","301582","0.0-6.0-61.0","75613","2022280","rare"
"823.4000000953674","false","fever","76","76,90","A","","","","test","32","true","","categorize-html","102","303915","0.0-6.0-63.0","75613","2022280","common"
"571.7999999523163","false","headache","90","76,90","C","","","","test","33","true","","categorize-html","104","305997","0.0-6.0-65.0","75613","2022280","rare"
"935.8000001907349","false","headache,rash","90","76,90","C","B","","","test","34","true","","categorize-html","106","308441","0.0-6.0-67.0","75613","2022280","rare"
"1279.2000000476837","false","rash,headache","90","76,90","B","C","","","test","35","true","","categorize-html","108","311234","0.0-6.0-69.0","75613","2022280","rare"
"1941.5999999046326","false","fever,rash","76","76,90","A","B","","","test","36","true","","categorize-html","110","314688","0.0-6.0-71.0","75613","2022280","common"
"1131","false","rash,fever","76","76,90","B","A","","","test","37","true","","categorize-html","112","317331","0.0-6.0-73.0","75613","2022280","common"
"592.5999999046326","false","headache,fever","90","76,90","C","A","","","test","38","true","","categorize-html","114","319436","0.0-6.0-75.0","75613","2022280","rare"
"720.7999999523163","false","headache","90","76,90","C","","","","test","39","true","","categorize-html","116","321666","0.0-6.0-77.0","75613","2022280","rare"
"642","false","fever","76","76,90","A","","","","test","40","true","","categorize-html","118","323819","0.0-6.0-79.0","75613","2022280","common"
"653.2999999523163","false","fever,headache","90","76,90","A","C","","","test","41","true","","categorize-html","120","325981","0.0-6.0-81.0","75613","2022280","rare"
"685.7999999523163","false","headache,rash","90","76,90","C","B","","","test","42","true","","categorize-html","122","328179","0.0-6.0-83.0","75613","2022280","rare"
"983.2000000476837","false","fever","90","76,90","A","","","","test","43","true","","categorize-html","124","330670","0.0-6.0-85.0","75613","2022280","rare"
"610.5999999046326","false","headache","90","76,90","C","","","","test","44","true","","categorize-html","126","332793","0.0-6.0-87.0","75613","2022280","rare"
"708.0999999046326","false","rash","76","76,90","B","","","","test","45","true","","categorize-html","128","335012","0.0-6.0-89.0","75613","2022280","common"
"617","false","fever,rash","90","76,90","A","B","","","test","46","true","","categorize-html","130","337142","0.0-6.0-91.0","75613","2022280","rare"
"656.8999998569489","false","rash","76","76,90","B","","","","test","47","true","","categorize-html","132","339308","0.0-6.0-93.0","75613","2022280","common"
"577.2000000476837","false","rash,headache","90","76,90","B","C","","","test","48","true","","categorize-html","134","341398","0.0-6.0-95.0","75613","2022280","rare"
"1649.1999998092651","false","rash,headache","90","76,90","B","C","","","test","49","true","","categorize-html","137","347073","0.0-6.0-98.0","75613","2022280","rare"
"552.5999999046326","false","headache,rash","90","76,90","C","B","","","test","50","true","","categorize-html","139","349139","0.0-6.0-100.0","75613","2022280","rare"
"586.0999999046326","false","headache","90","76,90","C","","","","test","51","true","","categorize-html","141","351236","0.0-6.0-102.0","75613","2022280","rare"
"997.6000001430511","false","fever,rash","76","76,90","A","B","","","test","52","true","","categorize-html","143","353743","0.0-6.0-104.0","75613","2022280","common"
"631.2000000476837","false","headache","90","76,90","C","","","","test","53","true","","categorize-html","145","355887","0.0-6.0-106.0","75613","2022280","rare"
"1124.4000000953674","false","fever","76","76,90","A","","","","test","54","true","","categorize-html","147","358521","0.0-6.0-108.0","75613","2022280","common"
"607.9000000953674","false","fever,headache","90","76,90","A","C","","","test","55","true","","categorize-html","149","360641","0.0-6.0-110.0","75613","2022280","rare"
"841.7999999523163","false","rash","76","76,90","B","","","","test","56","true","","categorize-html","151","362992","0.0-6.0-112.0","75613","2022280","common"
"449.2999999523163","false","rash","76","76,90","B","","","","test","57","true","","categorize-html","153","364952","0.0-6.0-114.0","75613","2022280","common"
"507.2000000476837","false","headache,fever","90","76,90","C","A","","","test","58","true","","categorize-html","155","366972","0.0-6.0-116.0","75613","2022280","rare"
"630.0999999046326","false","rash,fever","76","76,90","B","A","","","test","59","true","","categorize-html","157","369109","0.0-6.0-118.0","75613","2022280","common"
"603.5","false","fever","76","76,90","A","","","","test","60","true","","categorize-html","159","371223","0.0-6.0-120.0","75613","2022280","common"
"549.2999999523163","false","fever","76","76,90","A","","","","test","61","true","","categorize-html","161","373286","0.0-6.0-122.0","75613","2022280","common"
"548.0999999046326","false","headache","90","76,90","C","","","","test","62","true","","categorize-html","163","375346","0.0-6.0-124.0","75613","2022280","rare"
"730.2999999523163","false","rash","76","76,90","B","","","","test","63","true","","categorize-html","165","377589","0.0-6.0-126.0","75613","2022280","common"
"627.0999999046326","false","rash","76","76,90","B","","","","test","64","true","","categorize-html","167","379723","0.0-6.0-128.0","75613","2022280","common"
"766","false","fever,rash","76","76,90","A","B","","","test","65","true","","categorize-html","169","381999","0.0-6.0-130.0","75613","2022280","common"
"559.2999999523163","false","headache","90","76,90","C","","","","test","66","true","","categorize-html","171","384071","0.0-6.0-132.0","75613","2022280","rare"
"684.1000001430511","false","headache,fever","90","76,90","C","A","","","test","67","true","","categorize-html","173","386269","0.0-6.0-134.0","75613","2022280","rare"
"711.8999998569489","false","rash,fever","76","76,90","B","A","","","test","68","true","","categorize-html","175","388492","0.0-6.0-136.0","75613","2022280","common"
"1309.2999999523163","false","headache,rash","90","76,90","C","B","","","test","69","true","","categorize-html","177","391312","0.0-6.0-138.0","75613","2022280","rare"
"701.5","false","fever","76","76,90","A","","","","test","70","true","","categorize-html","179","393522","0.0-6.0-140.0","75613","2022280","common"
"532.7999999523163","false","fever,headache","90","76,90","A","C","","","test","71","true","","categorize-html","181","395562","0.0-6.0-142.0","75613","2022280","rare"
"1316.7999999523163","false","rash,headache","90","76,90","B","C","","","test","72","true","","categorize-html","183","398385","0.0-6.0-144.0","75613","2022280","rare"
"1275.5999999046326","false","rash,headache","90","76,90","B","C","","","test","73","true","","categorize-html","186","402674","0.0-6.0-147.0","75613","2022280","rare"
"648.2000000476837","false","headache,fever","90","76,90","C","A","","","test","74","true","","categorize-html","188","404836","0.0-6.0-149.0","75613","2022280","rare"
"523.2999999523163","false","rash","76","76,90","B","","","","test","75","true","","categorize-html","190","406867","0.0-6.0-151.0","75613","2022280","common"
"979.6000001430511","false","rash,fever","76","76,90","B","A","","","test","76","true","","categorize-html","192","409358","0.0-6.0-153.0","75613","2022280","common"
"468.7000000476837","false","headache","76","76,90","C","","","","test","77","true","","categorize-html","194","411340","0.0-6.0-155.0","75613","2022280","common"
"722","false","rash","76","76,90","B","","","","test","78","true","","categorize-html","196","413576","0.0-6.0-157.0","75613","2022280","common"
"626.5","false","headache","90","76,90","C","","","","test","79","true","","categorize-html","198","415708","0.0-6.0-159.0","75613","2022280","rare"
"620.9000000953674","false","fever,rash","76","76,90","A","B","","","test","80","true","","categorize-html","200","417838","0.0-6.0-161.0","75613","2022280","common"
"1654.9000000953674","false","headache,rash","90","76,90","C","B","","","test","81","true","","categorize-html","202","421002","0.0-6.0-163.0","75613","2022280","rare"
"1676.2000000476837","false","fever,headache","90","76,90","A","C","","","test","82","true","","categorize-html","204","424187","0.0-6.0-165.0","75613","2022280","rare"
"968","false","fever","76","76,90","A","","","","test","83","true","","categorize-html","206","426669","0.0-6.0-167.0","75613","2022280","common"
"592.2999999523163","false","fever","76","76,90","A","","","","test","84","true","","categorize-html","208","428773","0.0-6.0-169.0","75613","2022280","common"
"1074.4000000953674","false","fever","76","76,90","A","","","","test","85","true","","categorize-html","210","431359","0.0-6.0-171.0","75613","2022280","common"
"727.5999999046326","false","rash,fever","76","76,90","B","A","","","test","86","true","","categorize-html","212","433596","0.0-6.0-173.0","75613","2022280","common"
"524.0999999046326","false","headache","90","76,90","C","","","","test","87","true","","categorize-html","214","435634","0.0-6.0-175.0","75613","2022280","rare"
"1358.2000000476837","false","headache,rash","90","76,90","C","B","","","test","88","true","","categorize-html","216","438504","0.0-6.0-177.0","75613","2022280","rare"
"1633.0999999046326","false","headache,fever","90","76,90","C","A","","","test","89","true","","categorize-html","218","441647","0.0-6.0-179.0","75613","2022280","rare"
"1527.2000000476837","false","rash","76","76,90","B","","","","test","90","true","","categorize-html","220","444684","0.0-6.0-181.0","75613","2022280","common"
"1529.4000000953674","false","rash,headache","90","76,90","B","C","","","test","91","true","","categorize-html","222","447723","0.0-6.0-183.0","75613","2022280","rare"
"4135.599999904633","false","fever,rash","76","76,90","A","B","","","test","92","true","","categorize-html","224","453372","0.0-6.0-185.0","75613","2022280","common"
"1322.3999998569489","false","headache","90","76,90","C","","","","test","93","true","","categorize-html","226","456202","0.0-6.0-187.0","75613","2022280","rare"
"1060.1000001430511","false","rash","76","76,90","B","","","","test","94","true","","categorize-html","228","458769","0.0-6.0-189.0","75613","2022280","common"
"1131.2000000476837","false","fever,headache","90","76,90","A","C","","","test","95","true","","categorize-html","230","461413","0.0-6.0-191.0","75613","2022280","rare"
"1124.7999999523163","false","fever","76","76,90","A","","","","test","96","true","","categorize-html","232","464048","0.0-6.0-193.0","75613","2022280","common"
"1236.9000000953674","false","fever,rash","76","76,90","A","B","","","test","97","true","","categorize-html","235","521686","0.0-6.0-196.0","75613","2022280","common"
"523.7000000476837","false","fever","76","76,90","A","","","","test","98","true","","categorize-html","237","523721","0.0-6.0-198.0","75613","2022280","common"
"696.7999999523163","false","headache,rash","90","76,90","C","B","","","test","99","true","","categorize-html","239","525931","0.0-6.0-200.0","75613","2022280","rare"
"582.9000000953674","false","headache","90","76,90","C","","","","test","100","true","","categorize-html","241","528025","0.0-6.0-202.0","75613","2022280","rare"
"421.2999999523163","false","fever","76","76,90","A","","","","test","101","true","","categorize-html","243","529959","0.0-6.0-204.0","75613","2022280","common"
"527.9000000953674","false","headache,fever","90","76,90","C","A","","","test","102","true","","categorize-html","245","531997","0.0-6.0-206.0","75613","2022280","rare"
"555.5999999046326","false","rash","76","76,90","B","","","","test","103","true","","categorize-html","247","534066","0.0-6.0-208.0","75613","2022280","common"
"520","false","rash,fever","76","76,90","B","A","","","test","104","true","","categorize-html","249","536097","0.0-6.0-210.0","75613","2022280","common"
"785","false","fever,headache","76","76,90","A","C","","","test","105","true","","categorize-html","251","538393","0.0-6.0-212.0","75613","2022280","common"
"616.2999999523163","false","rash,headache","90","76,90","B","C","","","test","106","true","","categorize-html","253","540517","0.0-6.0-214.0","75613","2022280","rare"
"567.4000000953674","false","headache","90","76,90","C","","","","test","107","true","","categorize-html","255","542599","0.0-6.0-216.0","75613","2022280","rare"
"625.9000000953674","false","rash","76","76,90","B","","","","test","108","true","","categorize-html","257","544736","0.0-6.0-218.0","75613","2022280","common"
"1012.1999998092651","false","fever","76","76,90","A","","","","test","109","true","","categorize-html","259","547255","0.0-6.0-220.0","75613","2022280","common"
"590.5","false","rash","76","76,90","B","","","","test","110","true","","categorize-html","261","549356","0.0-6.0-222.0","75613","2022280","common"
"706.4000000953674","false","fever,rash","76","76,90","A","B","","","test","111","true","","categorize-html","263","551576","0.0-6.0-224.0","75613","2022280","common"
"448.90000009536743","false","headache","90","76,90","C","","","","test","112","true","","categorize-html","265","553539","0.0-6.0-226.0","75613","2022280","rare"
"542.1000001430511","false","rash,headache","90","76,90","B","C","","","test","113","true","","categorize-html","267","555593","0.0-6.0-228.0","75613","2022280","rare"
"425.5","false","headache,rash","90","76,90","C","B","","","test","114","true","","categorize-html","269","557526","0.0-6.0-230.0","75613","2022280","rare"
"595","false","rash","76","76,90","B","","","","test","115","true","","categorize-html","271","559633","0.0-6.0-232.0","75613","2022280","common"
"528.9000000953674","false","headache,fever","90","76,90","C","A","","","test","116","true","","categorize-html","273","561673","0.0-6.0-234.0","75613","2022280","rare"
"518.7999999523163","false","rash,fever","76","76,90","B","A","","","test","117","true","","categorize-html","275","563704","0.0-6.0-236.0","75613","2022280","common"
"780.9000000953674","false","fever","76","76,90","A","","","","test","118","true","","categorize-html","277","565994","0.0-6.0-238.0","75613","2022280","common"
"574.7000000476837","false","headache","90","76,90","C","","","","test","119","true","","categorize-html","279","568077","0.0-6.0-240.0","75613","2022280","rare"
"595.5999999046326","false","fever,headache","90","76,90","A","C","","","test","120","true","","categorize-html","281","570184","0.0-6.0-242.0","75613","2022280","rare"
