"rt","correct","stimulus","key_press","keys","symptom1","symptom2","key","category","phase","trial","include","block","trial_type","trial_index","time_elapsed","internal_node_id","ppt","session","abresp"
"null","false","headache,rash","null","76,90","A","B","76","common","training","1","true","1","categorize-html","4","218030","0.0-4.0-0.0","75655","202222011","none"
"2444","false","rash,headache","32","76,90","B","A","76","common","training","2","true","1","categorize-html","6","221479","0.0-4.0-2.0","75655","202222011","none"
"3424","false","headache,fever","32","76,90","A","C","90","rare","training","3","true","1","categorize-html","8","225907","0.0-4.0-4.0","75655","202222011","none"
"3758","false","fever,headache","32","76,90","C","A","90","rare","training","4","true","1","categorize-html","10","230669","0.0-4.0-6.0","75655","202222011","none"
"3616","false","headache,rash","32","76,90","A","B","76","common","training","5","true","1","categorize-html","12","235289","0.0-4.0-8.0","75655","202222011","none"
"3157.000000000029","false","headache,rash","32","76,90","A","B","76","common","training","6","true","1","categorize-html","14","239454","0.0-4.0-10.0","75655","202222011","none"
"2448.000000000029","false","rash,headache","32","76,90","B","A","76","common","training","7","true","1","categorize-html","16","242908","0.0-4.0-12.0","75655","202222011","none"
"3042.999999999971","false","rash,headache","32","76,90","B","A","76","common","training","8","true","1","categorize-html","18","246958","0.0-4.0-14.0","75655","202222011","none"
"2237","false","headache,rash","32","76,90","A","B","76","common","training","9","true","2","categorize-html","21","265430","0.0-4.0-17.0","75655","202222011","none"
"2522","false","headache,rash","32","76,90","A","B","76","common","training","10","true","2","categorize-html","23","268958","0.0-4.0-19.0","75655","202222011","none"
"2431","false","fever,headache","32","76,90","C","A","90","rare","training","11","true","2","categorize-html","25","272394","0.0-4.0-21.0","75655","202222011","none"
"1582","false","rash,headache","32","76,90","B","A","76","common","training","12","true","2","categorize-html","27","274980","0.0-4.0-23.0","75655","202222011","none"
"1248.9999999999418","false","rash,headache","32","76,90","B","A","76","common","training","13","true","2","categorize-html","29","277234","0.0-4.0-25.0","75655","202222011","none"
"2287","false","headache,fever","32","76,90","A","C","90","rare","training","14","true","2","categorize-html","31","280524","0.0-4.0-27.0","75655","202222011","none"
"1446","false","rash,headache","32","76,90","B","A","76","common","training","15","true","2","categorize-html","33","282975","0.0-4.0-29.0","75655","202222011","none"
"1975","false","headache,rash","32","76,90","A","B","76","common","training","16","true","2","categorize-html","35","285956","0.0-4.0-31.0","75655","202222011","none"
"3390.999999999942","false","fever,headache","90","76,90","C","A","","","test","1","true","","categorize-html","39","338674","0.0-6.0-0.0","75655","202222011","rare"
"1829","false","rash","76","76,90","B","","","","test","2","true","","categorize-html","41","342008","0.0-6.0-2.0","75655","202222011","common"
"2261","false","headache,fever","90","76,90","A","C","","","test","3","true","","categorize-html","43","345774","0.0-6.0-4.0","75655","202222011","rare"
"1971","false","headache","76","76,90","A","","","","test","4","true","","categorize-html","45","349253","0.0-6.0-6.0","75655","202222011","common"
"1128","false","headache","76","76,90","A","","","","test","5","true","","categorize-html","47","351887","0.0-6.0-8.0","75655","202222011","common"
"1656","false","rash,headache","76","76,90","B","A","","","test","6","true","","categorize-html","49","355048","0.0-6.0-10.0","75655","202222011","common"
"1374","false","headache,rash","76","76,90","A","B","","","test","7","true","","categorize-html","51","357928","0.0-6.0-12.0","75655","202222011","common"
"1425","false","fever","90","76,90","C","","","","test","8","true","","categorize-html","53","360858","0.0-6.0-14.0","75655","202222011","rare"
"3176","false","rash,fever","90","76,90","B","C","","","test","9","true","","categorize-html","55","365539","0.0-6.0-16.0","75655","202222011","rare"
"922","false","fever","90","76,90","C","","","","test","10","true","","categorize-html","57","367965","0.0-6.0-18.0","75655","202222011","rare"
"1021.0000000000582","false","rash","76","76,90","B","","","","test","11","true","","categorize-html","59","370490","0.0-6.0-20.0","75655","202222011","common"
"1735","false","fever,rash","90","76,90","C","B","","","test","12","true","","categorize-html","61","373730","0.0-6.0-22.0","75655","202222011","rare"
"1067","false","rash","76","76,90","B","","","","test","13","true","","categorize-html","63","376302","0.0-6.0-24.0","75655","202222011","common"
"861","false","rash","76","76,90","B","","","","test","14","true","","categorize-html","65","378668","0.0-6.0-26.0","75655","202222011","common"
"669","false","fever","90","76,90","C","","","","test","15","true","","categorize-html","67","380843","0.0-6.0-28.0","75655","202222011","rare"
"2001","false","headache,rash","76","76,90","A","B","","","test","16","true","","categorize-html","69","384349","0.0-6.0-30.0","75655","202222011","common"
"1356","false","headache","76","76,90","A","","","","test","17","true","","categorize-html","71","387211","0.0-6.0-32.0","75655","202222011","common"
"1029","false","rash,fever","76","76,90","B","C","","","test","18","true","","categorize-html","73","389751","0.0-6.0-34.0","75655","202222011","common"
"782","false","fever,rash","90","76,90","C","B","","","test","19","true","","categorize-html","75","392039","0.0-6.0-36.0","75655","202222011","rare"
"919","false","fever,headache","90","76,90","C","A","","","test","20","true","","categorize-html","77","394466","0.0-6.0-38.0","75655","202222011","rare"
"662.9999999999418","false","headache,fever","90","76,90","A","C","","","test","21","true","","categorize-html","79","396634","0.0-6.0-40.0","75655","202222011","rare"
"1228.9999999999418","false","rash,headache","76","76,90","B","A","","","test","22","true","","categorize-html","81","399368","0.0-6.0-42.0","75655","202222011","common"
"553","false","headache","76","76,90","A","","","","test","23","true","","categorize-html","83","401430","0.0-6.0-44.0","75655","202222011","common"
"763","false","fever","90","76,90","C","","","","test","24","true","","categorize-html","85","403699","0.0-6.0-46.0","75655","202222011","rare"
"843","false","fever","90","76,90","C","","","","test","25","true","","categorize-html","88","409250","0.0-6.0-49.0","75655","202222011","rare"
"877.0000000000582","false","headache,fever","90","76,90","A","C","","","test","26","true","","categorize-html","90","411631","0.0-6.0-51.0","75655","202222011","rare"
"740","false","headache,rash","76","76,90","A","B","","","test","27","true","","categorize-html","92","413875","0.0-6.0-53.0","75655","202222011","common"
"885","false","rash,headache","76","76,90","B","A","","","test","28","true","","categorize-html","94","416264","0.0-6.0-55.0","75655","202222011","common"
"745.9999999999418","false","headache","76","76,90","A","","","","test","29","true","","categorize-html","96","418514","0.0-6.0-57.0","75655","202222011","common"
"817.9999999999418","false","rash","76","76,90","B","","","","test","30","true","","categorize-html","98","420837","0.0-6.0-59.0","75655","202222011","common"
"781","false","fever,headache","90","76,90","C","A","","","test","31","true","","categorize-html","100","423122","0.0-6.0-61.0","75655","202222011","rare"
"747.9999999999418","false","rash","76","76,90","B","","","","test","32","true","","categorize-html","102","425376","0.0-6.0-63.0","75655","202222011","common"
"871","false","fever,rash","90","76,90","C","B","","","test","33","true","","categorize-html","104","427751","0.0-6.0-65.0","75655","202222011","rare"
"456","false","headache","76","76,90","A","","","","test","34","true","","categorize-html","106","429712","0.0-6.0-67.0","75655","202222011","common"
"579","false","rash,fever","76","76,90","B","C","","","test","35","true","","categorize-html","108","431799","0.0-6.0-69.0","75655","202222011","common"
"625","false","fever","90","76,90","C","","","","test","36","true","","categorize-html","110","433929","0.0-6.0-71.0","75655","202222011","rare"
"657","false","rash","76","76,90","B","","","","test","37","true","","categorize-html","112","436089","0.0-6.0-73.0","75655","202222011","common"
"619","false","rash,fever","76","76,90","B","C","","","test","38","true","","categorize-html","114","438215","0.0-6.0-75.0","75655","202222011","common"
"466","false","rash","76","76,90","B","","","","test","39","true","","categorize-html","116","440188","0.0-6.0-77.0","75655","202222011","common"
"752","false","fever","90","76,90","C","","","","test","40","true","","categorize-html","118","442448","0.0-6.0-79.0","75655","202222011","rare"
"519.9999999999418","false","fever","90","76,90","C","","","","test","41","true","","categorize-html","120","444473","0.0-6.0-81.0","75655","202222011","rare"
"1383","false","headache,rash","76","76,90","A","B","","","test","42","true","","categorize-html","122","447364","0.0-6.0-83.0","75655","202222011","common"
"495","false","headache","76","76,90","A","","","","test","43","true","","categorize-html","124","449364","0.0-6.0-85.0","75655","202222011","common"
"697.9999999999418","false","fever,headache","90","76,90","C","A","","","test","44","true","","categorize-html","126","451568","0.0-6.0-87.0","75655","202222011","rare"
"565.0000000000582","false","headache","76","76,90","A","","","","test","45","true","","categorize-html","128","453638","0.0-6.0-89.0","75655","202222011","common"
"1030","false","headache,fever","90","76,90","A","C","","","test","46","true","","categorize-html","130","456172","0.0-6.0-91.0","75655","202222011","rare"
"1461.0000000000582","false","fever,rash","90","76,90","C","B","","","test","47","true","","categorize-html","132","459138","0.0-6.0-93.0","75655","202222011","rare"
"819.9999999999418","false","rash,headache","76","76,90","B","A","","","test","48","true","","categorize-html","134","461464","0.0-6.0-95.0","75655","202222011","common"
"1499","false","rash,headache","76","76,90","B","A","","","test","49","true","","categorize-html","137","467753","0.0-6.0-98.0","75655","202222011","common"
"731","false","fever,headache","90","76,90","C","A","","","test","50","true","","categorize-html","139","469989","0.0-6.0-100.0","75655","202222011","rare"
"619","false","fever","90","76,90","C","","","","test","51","true","","categorize-html","141","472117","0.0-6.0-102.0","75655","202222011","rare"
"659","false","headache,rash","76","76,90","A","B","","","test","52","true","","categorize-html","143","474281","0.0-6.0-104.0","75655","202222011","common"
"742","false","fever,rash","90","76,90","C","B","","","test","53","true","","categorize-html","145","476529","0.0-6.0-106.0","75655","202222011","rare"
"515.0000000000582","false","rash","76","76,90","B","","","","test","54","true","","categorize-html","147","478549","0.0-6.0-108.0","75655","202222011","common"
"632","false","rash,fever","90","76,90","B","C","","","test","55","true","","categorize-html","149","480685","0.0-6.0-110.0","75655","202222011","rare"
"603.9999999999418","false","headache","76","76,90","A","","","","test","56","true","","categorize-html","151","482795","0.0-6.0-112.0","75655","202222011","common"
"538","false","rash","90","76,90","B","","","","test","57","true","","categorize-html","153","484838","0.0-6.0-114.0","75655","202222011","rare"
"651.0000000000582","false","headache","76","76,90","A","","","","test","58","true","","categorize-html","155","486993","0.0-6.0-116.0","75655","202222011","common"
"622","false","fever","90","76,90","C","","","","test","59","true","","categorize-html","157","489120","0.0-6.0-118.0","75655","202222011","rare"
"1170","false","headache,fever","90","76,90","A","C","","","test","60","true","","categorize-html","159","491795","0.0-6.0-120.0","75655","202222011","rare"
"937","false","fever,rash","76","76,90","C","B","","","test","61","true","","categorize-html","161","494238","0.0-6.0-122.0","75655","202222011","common"
"739.0000000000582","false","headache,rash","90","76,90","A","B","","","test","62","true","","categorize-html","163","496483","0.0-6.0-124.0","75655","202222011","rare"
"1247.9999999999418","false","rash,fever","76","76,90","B","C","","","test","63","true","","categorize-html","165","499237","0.0-6.0-126.0","75655","202222011","common"
"713","false","rash,headache","76","76,90","B","A","","","test","64","true","","categorize-html","167","501457","0.0-6.0-128.0","75655","202222011","common"
"573.0000000000582","false","headache","76","76,90","A","","","","test","65","true","","categorize-html","169","503536","0.0-6.0-130.0","75655","202222011","common"
"628","false","rash","76","76,90","B","","","","test","66","true","","categorize-html","171","505672","0.0-6.0-132.0","75655","202222011","common"
"458","false","rash","76","76,90","B","","","","test","67","true","","categorize-html","173","507637","0.0-6.0-134.0","75655","202222011","common"
"1050.9999999998836","false","headache,fever","90","76,90","A","C","","","test","68","true","","categorize-html","175","510194","0.0-6.0-136.0","75655","202222011","rare"
"731","false","headache","76","76,90","A","","","","test","69","true","","categorize-html","177","512431","0.0-6.0-138.0","75655","202222011","common"
"626","false","fever","76","76,90","C","","","","test","70","true","","categorize-html","179","514562","0.0-6.0-140.0","75655","202222011","common"
"736","false","fever,headache","90","76,90","C","A","","","test","71","true","","categorize-html","181","516804","0.0-6.0-142.0","75655","202222011","rare"
"516.9999999999418","false","fever","90","76,90","C","","","","test","72","true","","categorize-html","183","518826","0.0-6.0-144.0","75655","202222011","rare"
"1645","false","headache","76","76,90","A","","","","test","73","true","","categorize-html","186","529090","0.0-6.0-147.0","75655","202222011","common"
"1321","false","rash,fever","90","76,90","B","C","","","test","74","true","","categorize-html","188","531915","0.0-6.0-149.0","75655","202222011","rare"
"740","false","fever,rash","90","76,90","C","B","","","test","75","true","","categorize-html","190","534160","0.0-6.0-151.0","75655","202222011","rare"
"642","false","fever","90","76,90","C","","","","test","76","true","","categorize-html","192","536307","0.0-6.0-153.0","75655","202222011","rare"
"713","false","headache,fever","76","76,90","A","C","","","test","77","true","","categorize-html","194","538525","0.0-6.0-155.0","75655","202222011","common"
"568","false","fever","90","76,90","C","","","","test","78","true","","categorize-html","196","540598","0.0-6.0-157.0","75655","202222011","rare"
"792","false","headache,rash","76","76,90","A","B","","","test","79","true","","categorize-html","198","542896","0.0-6.0-159.0","75655","202222011","common"
"1585","false","fever,headache","90","76,90","C","A","","","test","80","true","","categorize-html","200","545986","0.0-6.0-161.0","75655","202222011","rare"
"605","false","headache","76","76,90","A","","","","test","81","true","","categorize-html","202","548100","0.0-6.0-163.0","75655","202222011","common"
"1019","false","rash","76","76,90","B","","","","test","82","true","","categorize-html","204","550625","0.0-6.0-165.0","75655","202222011","common"
"853","false","rash,headache","76","76,90","B","A","","","test","83","true","","categorize-html","206","552983","0.0-6.0-167.0","75655","202222011","common"
"741","false","rash","76","76,90","B","","","","test","84","true","","categorize-html","208","555229","0.0-6.0-169.0","75655","202222011","common"
"839","false","headache,fever","90","76,90","A","C","","","test","85","true","","categorize-html","210","557574","0.0-6.0-171.0","75655","202222011","rare"
"700.0000000001164","false","headache","76","76,90","A","","","","test","86","true","","categorize-html","212","559779","0.0-6.0-173.0","75655","202222011","common"
"1002","false","headache,rash","76","76,90","A","B","","","test","87","true","","categorize-html","214","562285","0.0-6.0-175.0","75655","202222011","common"
"618.0000000001164","false","headache","76","76,90","A","","","","test","88","true","","categorize-html","216","564410","0.0-6.0-177.0","75655","202222011","common"
"587","false","rash","76","76,90","B","","","","test","89","true","","categorize-html","218","566501","0.0-6.0-179.0","75655","202222011","common"
"709.9999999998836","false","fever,headache","90","76,90","C","A","","","test","90","true","","categorize-html","220","568715","0.0-6.0-181.0","75655","202222011","rare"
"1035.0000000001164","false","fever,rash","90","76,90","C","B","","","test","91","true","","categorize-html","222","571255","0.0-6.0-183.0","75655","202222011","rare"
"610.9999999998836","false","rash,headache","76","76,90","B","A","","","test","92","true","","categorize-html","224","573371","0.0-6.0-185.0","75655","202222011","common"
"567","false","fever","90","76,90","C","","","","test","93","true","","categorize-html","226","575443","0.0-6.0-187.0","75655","202222011","rare"
"704","false","rash,fever","76","76,90","B","C","","","test","94","true","","categorize-html","228","577650","0.0-6.0-189.0","75655","202222011","common"
"475.0000000001164","false","rash","76","76,90","B","","","","test","95","true","","categorize-html","230","579630","0.0-6.0-191.0","75655","202222011","common"
"524","false","fever","90","76,90","C","","","","test","96","true","","categorize-html","232","581659","0.0-6.0-193.0","75655","202222011","rare"
"1154","false","fever,rash","90","76,90","C","B","","","test","97","true","","categorize-html","235","586504","0.0-6.0-196.0","75655","202222011","rare"
"768","false","fever,headache","90","76,90","C","A","","","test","98","true","","categorize-html","237","588777","0.0-6.0-198.0","75655","202222011","rare"
"546","false","headache","76","76,90","A","","","","test","99","true","","categorize-html","239","590828","0.0-6.0-200.0","75655","202222011","common"
"1012","false","headache,fever","90","76,90","A","C","","","test","100","true","","categorize-html","241","593345","0.0-6.0-202.0","75655","202222011","rare"
"558.9999999998836","false","fever","76","76,90","C","","","","test","101","true","","categorize-html","243","595410","0.0-6.0-204.0","75655","202222011","common"
"645","false","headache","76","76,90","A","","","","test","102","true","","categorize-html","245","597561","0.0-6.0-206.0","75655","202222011","common"
"789.0000000001164","false","rash","76","76,90","B","","","","test","103","true","","categorize-html","247","599856","0.0-6.0-208.0","75655","202222011","common"
"1050","false","headache,rash","76","76,90","A","B","","","test","104","true","","categorize-html","249","602409","0.0-6.0-210.0","75655","202222011","common"
"1054","false","rash,headache","76","76,90","B","A","","","test","105","true","","categorize-html","251","604969","0.0-6.0-212.0","75655","202222011","common"
"492","false","rash","76","76,90","B","","","","test","106","true","","categorize-html","253","606965","0.0-6.0-214.0","75655","202222011","common"
"676","false","rash,fever","90","76,90","B","C","","","test","107","true","","categorize-html","255","609146","0.0-6.0-216.0","75655","202222011","rare"
"414","false","fever","90","76,90","C","","","","test","108","true","","categorize-html","257","611066","0.0-6.0-218.0","75655","202222011","rare"
"864","false","headache,fever","90","76,90","A","C","","","test","109","true","","categorize-html","259","613435","0.0-6.0-220.0","75655","202222011","rare"
"767","false","headache,rash","76","76,90","A","B","","","test","110","true","","categorize-html","261","615707","0.0-6.0-222.0","75655","202222011","common"
"420","false","headache","76","76,90","A","","","","test","111","true","","categorize-html","263","617632","0.0-6.0-224.0","75655","202222011","common"
"706","false","fever","90","76,90","C","","","","test","112","true","","categorize-html","265","619844","0.0-6.0-226.0","75655","202222011","rare"
"1401","false","rash,headache","76","76,90","B","A","","","test","113","true","","categorize-html","267","622747","0.0-6.0-228.0","75655","202222011","common"
"631.9999999998836","false","fever","90","76,90","C","","","","test","114","true","","categorize-html","269","624886","0.0-6.0-230.0","75655","202222011","rare"
"973","false","fever,headache","90","76,90","C","A","","","test","115","true","","categorize-html","271","627364","0.0-6.0-232.0","75655","202222011","rare"
"549","false","rash","76","76,90","B","","","","test","116","true","","categorize-html","273","629420","0.0-6.0-234.0","75655","202222011","common"
"841","false","fever,rash","90","76,90","C","B","","","test","117","true","","categorize-html","275","631765","0.0-6.0-236.0","75655","202222011","rare"
"873.9999999998836","false","rash","76","76,90","B","","","","test","118","true","","categorize-html","277","634147","0.0-6.0-238.0","75655","202222011","common"
"625","false","headache","76","76,90","A","","","","test","119","true","","categorize-html","279","636277","0.0-6.0-240.0","75655","202222011","common"
"771","false","rash,fever","90","76,90","B","C","","","test","120","true","","categorize-html","281","638553","0.0-6.0-242.0","75655","202222011","rare"
